t,wx,wy,wz,ax,ay,az,qw,qx,qy,qz
0.004166666,0.000000000,0.000000000,0.822467033,-0.000000000,0.000000000,9.800000000,1.000000000,0.000000000,0.000000000,0.000000000
0.008333332,0.000000000,0.000000000,0.822467033,-0.000000000,0.000000000,9.800000000,0.999998532,0.000000000,0.000000000,0.001713472
0.012499998,0.000000000,0.000000000,0.822467033,-0.000000000,-0.000000000,9.800000000,0.999994128,0.000000000,0.000000000,0.003426939
0.016666664,0.000000000,0.000000000,0.822467033,-0.000000000,0.000000000,9.800000000,0.999986788,0.000000000,0.000000000,0.005140395
0.020833330,0.000000000,0.000000000,0.822308495,0.000000000,-0.000000000,9.800000000,0.999976514,0.000000000,0.000000000,0.006853507
0.029166662,0.000000000,0.000000000,0.822308495,-0.000000000,-0.000000000,9.800000000,0.999947163,0.000000000,0.000000000,0.010279664
0.033333328,0.000000000,0.000000000,0.821832941,0.000000000,0.000000000,9.800000000,0.999928097,0.000000000,0.000000000,0.011991710
0.037499994,0.000000000,0.000000000,0.821832941,0.000000000,0.000000000,9.800000000,0.999906100,0.000000000,0.000000000,0.013703720
0.041666660,0.000000000,0.000000000,0.821832941,0.000000000,0.000000000,9.800000000,0.999881171,0.000000000,0.000000000,0.015415690
0.045833326,0.000000000,0.000000000,0.821040555,0.000000000,0.000000000,9.800000000,0.999853340,0.000000000,0.000000000,0.017125964
0.054166658,0.000000000,0.000000000,0.821040555,0.000000000,0.000000000,9.800000000,0.999788901,0.000000000,0.000000000,0.020546357
0.058333324,0.000000000,0.000000000,0.819931643,0.000000000,0.000000000,9.800000000,0.999752346,0.000000000,0.000000000,0.022254156
0.062499990,0.000000000,0.000000000,0.819931643,0.000000000,0.000000000,9.800000000,0.999712873,0.000000000,0.000000000,0.023961891
0.066666656,0.000000000,0.000000000,0.819931643,0.000000000,0.000000000,9.800000000,0.999670483,0.000000000,0.000000000,0.025669555
0.070833322,0.000000000,0.000000000,0.818506631,0.000000000,0.000000000,9.800000000,0.999625257,0.000000000,0.000000000,0.027374177
0.079166654,0.000000000,0.000000000,0.818506631,0.000000000,0.000000000,9.800000000,0.999526086,0.000000000,0.000000000,0.030783177
0.083333320,0.000000000,0.000000000,0.816766070,-0.000000000,-0.000000000,9.800000000,0.999472258,0.000000000,0.000000000,0.032483921
0.087499986,0.000000000,0.000000000,0.816766070,-0.000000000,-0.000000000,9.800000000,0.999415537,0.000000000,0.000000000,0.034184571
0.091666652,0.000000000,0.000000000,0.816766070,0.000000000,-0.000000000,9.800000000,0.999355922,0.000000000,0.000000000,0.035885122
0.095833318,0.000000000,0.000000000,0.814710629,-0.000000000,0.000000000,9.800000000,0.999293574,0.000000000,0.000000000,0.037581289
0.104166650,0.000000000,0.000000000,0.814710629,-0.000000000,0.000000000,9.800000000,0.999160242,0.000000000,0.000000000,0.040973295
0.108333316,0.000000000,0.000000000,0.812341103,0.000000000,0.000000000,9.800000000,0.999089469,0.000000000,0.000000000,0.042664192
0.112499982,0.000000000,0.000000000,0.812341103,-0.000000000,0.000000000,9.800000000,0.999015834,0.000000000,0.000000000,0.044354966
0.116666648,0.000000000,0.000000000,0.812341103,0.000000000,0.000000000,9.800000000,0.998939338,0.000000000,0.000000000,0.046045613
0.120833314,0.000000000,0.000000000,0.809658403,0.000000000,0.000000000,9.800000000,0.998860248,0.000000000,0.000000000,0.047730546
0.129166646,0.000000000,0.000000000,0.809658403,-0.000000000,0.000000000,9.800000000,0.998693542,0.000000000,0.000000000,0.051099999
0.133333312,0.000000000,0.000000000,0.806663565,-0.000000000,0.000000000,9.800000000,0.998606255,0.000000000,0.000000000,0.052778279
0.137499978,0.000000000,0.000000000,0.806663565,0.000000000,0.000000000,9.800000000,0.998516149,0.000000000,0.000000000,0.054456410
0.141666644,0.000000000,0.000000000,0.806663565,0.000000000,0.000000000,9.800000000,0.998423222,0.000000000,0.000000000,0.056134388
0.145833310,0.000000000,0.000000000,0.803357743,0.000000000,0.000000000,9.800000000,0.998327874,0.000000000,0.000000000,0.057805331
0.154166642,0.000000000,0.000000000,0.803357743,-0.000000000,0.000000000,9.800000000,0.998128788,0.000000000,0.000000000,0.061146727
0.158333308,0.000000000,0.000000000,0.799742211,0.000000000,0.000000000,9.800000000,0.998025524,0.000000000,0.000000000,0.062809653
0.162499974,0.000000000,0.000000000,0.799742211,0.000000000,0.000000000,9.800000000,0.997919490,0.000000000,0.000000000,0.064472405
0.166666640,0.000000000,0.000000000,0.799742211,0.000000000,0.000000000,9.800000000,0.997810686,0.000000000,0.000000000,0.066134978
0.170833306,0.000000000,0.000000000,0.795818364,0.000000000,0.000000000,9.800000000,0.997699666,0.000000000,0.000000000,0.067789211
0.179166638,0.000000000,0.000000000,0.795818364,0.000000000,0.000000000,9.800000000,0.997469398,0.000000000,0.000000000,0.071097114
0.183333304,0.000000000,0.000000000,0.791587713,0.000000000,0.000000000,9.800000000,0.997350793,0.000000000,0.000000000,0.072741984
0.187499970,0.000000000,0.000000000,0.791587713,0.000000000,0.000000000,9.800000000,0.997229475,0.000000000,0.000000000,0.074386656
0.191666636,0.000000000,0.000000000,0.791587713,0.000000000,0.000000000,9.800000000,0.997105445,0.000000000,0.000000000,0.076031126
0.195833302,0.000000000,0.000000000,0.787051890,0.000000000,0.000000000,9.800000000,0.996979437,0.000000000,0.000000000,0.077665968
0.204166634,0.000000000,0.000000000,0.787051890,-0.000000000,0.000000000,9.800000000,0.996719380,0.000000000,0.000000000,0.080935021
0.208333300,0.000000000,0.000000000,0.782212644,0.000000000,0.000000000,9.800000000,0.996586164,0.000000000,0.000000000,0.082559176
0.212499966,0.000000000,0.000000000,0.782212644,0.000000000,0.000000000,9.800000000,0.996450302,0.000000000,0.000000000,0.084183112
0.216666632,0.000000000,0.000000000,0.782212644,0.000000000,0.000000000,9.800000000,0.996311793,0.000000000,0.000000000,0.085806824
0.220833298,0.000000000,0.000000000,0.777071841,0.000000000,0.000000000,9.800000000,0.996171575,0.000000000,0.000000000,0.087419640
0.229166630,0.000000000,0.000000000,0.777071841,0.000000000,0.000000000,9.800000000,0.995883307,0.000000000,0.000000000,0.090644579
0.233333296,0.000000000,0.000000000,0.771631461,0.000000000,0.000000000,9.800000000,0.995736303,0.000000000,0.000000000,0.092245409
0.237499962,0.000000000,0.000000000,0.771631461,0.000000000,0.000000000,9.800000000,0.995586726,0.000000000,0.000000000,0.093846000
0.241666628,0.000000000,0.000000000,0.771631461,0.000000000,0.000000000,9.800000000,0.995434576,0.000000000,0.000000000,0.095446349
0.245833294,0.000000000,0.000000000,0.765893603,0.000000000,-0.000000000,9.800000000,0.995281013,0.000000000,0.000000000,0.097034553
0.254166626,0.000000000,0.000000000,0.765893603,0.000000000,-0.000000000,9.800000000,0.994966287,0.000000000,0.000000000,0.100210217
0.258333292,0.000000000,0.000000000,0.759860478,-0.000000000,-0.000000000,9.800000000,0.994806403,0.000000000,0.000000000,0.101785165
0.262499958,0.000000000,0.000000000,0.759860478,-0.000000000,0.000000000,9.800000000,0.994644027,0.000000000,0.000000000,0.103359857
0.266666624,0.000000000,0.000000000,0.759860478,-0.000000000,0.000000000,9.800000000,0.994479157,0.000000000,0.000000000,0.104934291
0.270833290,0.000000000,0.000000000,0.753534413,0.000000000,0.000000000,9.800000000,0.994313200,0.000000000,0.000000000,0.106495357
0.279166622,0.000000000,0.000000000,0.753534413,0.000000000,0.000000000,9.800000000,0.993973933,0.000000000,0.000000000,0.109616698
0.283333288,0.000000000,0.000000000,0.746917846,0.000000000,0.000000000,9.800000000,0.993802157,0.000000000,0.000000000,0.111163267
0.287499954,0.000000000,0.000000000,0.746917846,-0.000000000,0.000000000,9.800000000,0.993627976,0.000000000,0.000000000,0.112709566
0.291666620,0.000000000,0.000000000,0.746917846,-0.000000000,0.000000000,9.800000000,0.993451388,0.000000000,0.000000000,0.114255592
0.295833286,0.000000000,0.000000000,0.740013328,-0.000000000,0.000000000,9.800000000,0.993274060,0.000000000,0.000000000,0.115787054
0.304166618,0.000000000,0.000000000,0.740013328,0.000000000,0.000000000,9.800000000,0.992912322,0.000000000,0.000000000,0.118849148
0.308333284,0.000000000,0.000000000,0.732823521,-0.000000000,0.000000000,9.800000000,0.992729716,0.000000000,0.000000000,0.120364904
0.312499950,0.000000000,0.000000000,0.732823521,0.000000000,0.000000000,9.800000000,0.992544797,0.000000000,0.000000000,0.121880378
0.316666616,0.000000000,0.000000000,0.732823521,0.000000000,0.000000000,9.800000000,0.992357563,0.000000000,0.000000000,0.123395569
0.320833282,0.000000000,0.000000000,0.725351196,0.000000000,0.000000000,9.800000000,0.992169961,0.000000000,0.000000000,0.124895027
0.329166614,0.000000000,0.000000000,0.725351196,0.000000000,0.000000000,9.800000000,0.991787961,0.000000000,0.000000000,0.127893084
0.333333280,0.000000000,0.000000000,0.717599235,0.000000000,0.000000000,9.800000000,0.991595653,0.000000000,0.000000000,0.129375661
0.337499946,0.000000000,0.000000000,0.717599235,0.000000000,0.000000000,9.800000000,0.991401128,0.000000000,0.000000000,0.130857950
0.341666612,0.000000000,0.000000000,0.717599235,0.000000000,0.000000000,9.800000000,0.991204388,0.000000000,0.000000000,0.132339946
0.345833278,0.000000000,0.000000000,0.709570626,0.000000000,-0.000000000,9.800000000,0.991007671,0.000000000,0.000000000,0.133805070
0.354166610,0.000000000,0.000000000,0.709570626,0.000000000,0.000000000,9.800000000,0.990607739,0.000000000,0.000000000,0.136734439
0.358333276,0.000000000,0.000000000,0.701268464,-0.000000000,-0.000000000,9.800000000,0.990406917,0.000000000,0.000000000,0.138181546
0.362499942,0.000000000,0.000000000,0.701268464,-0.000000000,0.000000000,9.800000000,0.990203980,0.000000000,0.000000000,0.139628359
0.366666608,0.000000000,0.000000000,0.701268464,-0.000000000,-0.000000000,9.800000000,0.989998929,0.000000000,0.000000000,0.141074873
0.370833274,0.000000000,0.000000000,0.692695950,0.000000000,0.000000000,9.800000000,0.989794311,0.000000000,0.000000000,0.142503409
0.379166606,0.000000000,0.000000000,0.692695950,-0.000000000,0.000000000,9.800000000,0.989378891,0.000000000,0.000000000,0.145359589
0.383333272,0.000000000,0.000000000,0.683856388,-0.000000000,0.000000000,9.800000000,0.989170793,0.000000000,0.000000000,0.146769009
0.387499938,0.000000000,0.000000000,0.683856388,-0.000000000,0.000000000,9.800000000,0.988960687,0.000000000,0.000000000,0.148178132
0.391666604,0.000000000,0.000000000,0.683856388,-0.000000000,0.000000000,9.800000000,0.988748574,0.000000000,0.000000000,0.149586954
0.395833270,0.000000000,0.000000000,0.674753187,0.000000000,-0.000000000,9.800000000,0.988537318,0.000000000,0.000000000,0.150976725
0.404166602,0.000000000,0.000000000,0.674753187,0.000000000,-0.000000000,9.800000000,0.988108945,0.000000000,0.000000000,0.153755369
0.408333268,0.000000000,0.000000000,0.665389856,-0.000000000,-0.000000000,9.800000000,0.987894855,0.000000000,0.000000000,0.155124965
0.412499934,0.000000000,0.000000000,0.665389856,-0.000000000,0.000000000,9.800000000,0.987678868,0.000000000,0.000000000,0.156494264
0.416666600,0.000000000,0.000000000,0.665389856,-0.000000000,-0.000000000,9.800000000,0.987460982,0.000000000,0.000000000,0.157863262
0.420833266,0.000000000,0.000000000,0.655770004,-0.000000000,0.000000000,9.800000000,0.987244390,0.000000000,0.000000000,0.159212171
0.429166598,0.000000000,0.000000000,0.655770004,-0.000000000,-0.000000000,9.800000000,0.986805677,0.000000000,0.000000000,0.161909095
0.433333264,0.000000000,0.000000000,0.645897341,0.000000000,0.000000000,9.800000000,0.986586916,0.000000000,0.000000000,0.163236812
0.437499930,0.000000000,0.000000000,0.645897341,0.000000000,0.000000000,9.800000000,0.986366368,0.000000000,0.000000000,0.164564235
0.441666596,0.000000000,0.000000000,0.645897341,0.000000000,0.000000000,9.800000000,0.986144035,0.000000000,0.000000000,0.165891359
0.445833262,0.000000000,0.000000000,0.635775672,0.000000000,-0.000000000,9.800000000,0.985923441,0.000000000,0.000000000,0.167197393
0.454166594,0.000000000,0.000000000,0.635775672,-0.000000000,-0.000000000,9.800000000,0.985477066,0.000000000,0.000000000,0.169808578
0.458333260,0.000000000,0.000000000,0.625408899,-0.000000000,-0.000000000,9.800000000,0.985254980,0.000000000,0.000000000,0.171092446
0.462499926,0.000000000,0.000000000,0.625408899,-0.000000000,-0.000000000,9.800000000,0.985031221,0.000000000,0.000000000,0.172376024
0.466666592,0.000000000,0.000000000,0.625408899,-0.000000000,0.000000000,9.800000000,0.984805790,0.000000000,0.000000000,0.173659309
0.470833258,0.000000000,0.000000000,0.614801020,-0.000000000,-0.000000000,9.800000000,0.984582554,0.000000000,0.000000000,0.174920540
0.479166590,0.000000000,0.000000000,0.614801020,-0.000000000,-0.000000000,9.800000000,0.984131235,0.000000000,0.000000000,0.177442139
0.483333256,0.000000000,0.000000000,0.603956123,0.000000000,0.000000000,9.800000000,0.983907191,0.000000000,0.000000000,0.178680273
0.487499922,0.000000000,0.000000000,0.603956123,0.000000000,0.000000000,9.800000000,0.983681589,0.000000000,0.000000000,0.179918125
0.491666588,0.000000000,0.000000000,0.603956123,-0.000000000,0.000000000,9.800000000,0.983454430,0.000000000,0.000000000,0.181155691
0.495833254,0.000000000,0.000000000,0.592878389,0.000000000,0.000000000,9.800000000,0.983229923,0.000000000,0.000000000,0.182370279
0.504166586,0.000000000,0.000000000,0.592878389,0.000000000,0.000000000,9.800000000,0.982776409,0.000000000,0.000000000,0.184798619
0.508333252,0.000000000,0.000000000,0.581572090,0.000000000,0.000000000,9.800000000,0.982551784,0.000000000,0.000000000,0.185989223
0.512499918,0.000000000,0.000000000,0.581572090,0.000000000,0.000000000,9.800000000,0.982325717,0.000000000,0.000000000,0.187179554
0.516666584,0.000000000,0.000000000,0.581572090,-0.000000000,-0.000000000,9.800000000,0.982098208,0.000000000,0.000000000,0.188369611
0.520833250,0.000000000,0.000000000,0.570041583,-0.000000000,0.000000000,9.800000000,0.981873810,0.000000000,0.000000000,0.189535804
0.529166582,0.000000000,0.000000000,0.570041583,-0.000000000,0.000000000,9.800000000,0.981420861,0.000000000,0.000000000,0.191867387
0.533333248,0.000000000,0.000000000,0.558291315,0.000000000,-0.000000000,9.800000000,0.981197035,0.000000000,0.000000000,0.193008755
0.537499914,0.000000000,0.000000000,0.558291315,0.000000000,-0.000000000,9.800000000,0.980971881,0.000000000,0.000000000,0.194149861
0.541666580,0.000000000,0.000000000,0.558291315,0.000000000,0.000000000,9.800000000,0.980745401,0.000000000,0.000000000,0.195290704
0.545833246,0.000000000,0.000000000,0.546325815,0.000000000,0.000000000,9.800000000,0.980522490,0.000000000,0.000000000,0.196406841
0.554166578,0.000000000,0.000000000,0.546325815,0.000000000,0.000000000,9.800000000,0.980072858,0.000000000,0.000000000,0.198638349
0.558333244,0.000000000,0.000000000,0.534149696,0.000000000,0.000000000,9.800000000,0.979851204,0.000000000,0.000000000,0.199728863
0.562499910,0.000000000,0.000000000,0.534149696,-0.000000000,0.000000000,9.800000000,0.979628336,0.000000000,0.000000000,0.200819129
0.566666576,0.000000000,0.000000000,0.534149696,0.000000000,0.000000000,9.800000000,0.979404256,0.000000000,0.000000000,0.201909146
0.570833242,0.000000000,0.000000000,0.521767652,0.000000000,-0.000000000,9.800000000,0.979184199,0.000000000,0.000000000,0.202973654
0.579166574,0.000000000,0.000000000,0.521767652,0.000000000,-0.000000000,9.800000000,0.978740614,0.000000000,0.000000000,0.205101950
0.583333240,0.000000000,0.000000000,0.509184457,0.000000000,0.000000000,9.800000000,0.978522491,0.000000000,0.000000000,0.206140083
0.587499906,0.000000000,0.000000000,0.509184457,0.000000000,0.000000000,9.800000000,0.978303267,0.000000000,0.000000000,0.207177985
0.591666572,0.000000000,0.000000000,0.509184457,0.000000000,0.000000000,9.800000000,0.978082942,0.000000000,0.000000000,0.208215653
0.595833238,0.000000000,0.000000000,0.496404962,0.000000000,0.000000000,9.800000000,0.977867087,0.000000000,0.000000000,0.209227052
0.604166570,0.000000000,0.000000000,0.496404962,0.000000000,-0.000000000,9.800000000,0.977432241,0.000000000,0.000000000,0.211249178
0.608333236,0.000000000,0.000000000,0.483434093,-0.000000000,0.000000000,9.800000000,0.977218984,0.000000000,0.000000000,0.212233496
0.612499902,0.000000000,0.000000000,0.483434093,0.000000000,0.000000000,9.800000000,0.977004737,0.000000000,0.000000000,0.213217598
0.616666568,0.000000000,0.000000000,0.483434093,0.000000000,0.000000000,9.800000000,0.976789498,0.000000000,0.000000000,0.214201484
0.620833234,0.000000000,0.000000000,0.470276851,0.000000000,-0.000000000,9.800000000,0.976579167,0.000000000,0.000000000,0.215158384
0.629166566,0.000000000,0.000000000,0.470276851,0.000000000,-0.000000000,9.800000000,0.976155693,0.000000000,0.000000000,0.217071564
0.633333232,0.000000000,0.000000000,0.456938309,-0.000000000,-0.000000000,9.800000000,0.975948608,0.000000000,0.000000000,0.218000721
0.637499898,0.000000000,0.000000000,0.456938309,-0.000000000,-0.000000000,9.800000000,0.975740639,0.000000000,0.000000000,0.218929681
0.641666564,0.000000000,0.000000000,0.456938309,-0.000000000,-0.000000000,9.800000000,0.975531786,0.000000000,0.000000000,0.219858443
0.645833230,0.000000000,0.000000000,0.443423608,0.000000000,-0.000000000,9.800000000,0.975328265,0.000000000,0.000000000,0.220759544
0.654166562,0.000000000,0.000000000,0.443423608,0.000000000,-0.000000000,9.800000000,0.974918725,0.000000000,0.000000000,0.222561181
0.658333228,0.000000000,0.000000000,0.429737959,0.000000000,0.000000000,9.800000000,0.974719078,0.000000000,0.000000000,0.223433924
0.662499894,0.000000000,0.000000000,0.429737959,0.000000000,0.000000000,9.800000000,0.974518650,0.000000000,0.000000000,0.224306488
0.666666560,0.000000000,0.000000000,0.429737959,0.000000000,0.000000000,9.800000000,0.974317441,0.000000000,0.000000000,0.225178872
0.670833226,0.000000000,0.000000000,0.415886638,0.000000000,-0.000000000,9.800000000,0.974121973,0.000000000,0.000000000,0.226022965
0.679166558,0.000000000,0.000000000,0.415886638,-0.000000000,-0.000000000,9.800000000,0.973728845,0.000000000,0.000000000,0.227710643
0.683333224,0.000000000,0.000000000,0.401874985,-0.000000000,0.000000000,9.800000000,0.973537855,0.000000000,0.000000000,0.228525807
0.687499890,0.000000000,0.000000000,0.401874985,0.000000000,0.000000000,9.800000000,0.973346183,0.000000000,0.000000000,0.229340811
0.691666556,0.000000000,0.000000000,0.401874985,0.000000000,0.000000000,9.800000000,0.973153829,0.000000000,0.000000000,0.230155655
0.695833222,0.000000000,0.000000000,0.387708401,-0.000000000,0.000000000,9.800000000,0.972967609,0.000000000,0.000000000,0.230941621
0.704166554,0.000000000,0.000000000,0.387708401,0.000000000,0.000000000,9.800000000,0.972593264,0.000000000,0.000000000,0.232513101
0.708333220,0.000000000,0.000000000,0.373392348,0.000000000,0.000000000,9.800000000,0.972412098,0.000000000,0.000000000,0.233269611
0.712499886,0.000000000,0.000000000,0.373392348,0.000000000,0.000000000,9.800000000,0.972230343,0.000000000,0.000000000,0.234025980
0.716666552,0.000000000,0.000000000,0.373392348,0.000000000,0.000000000,9.800000000,0.972048000,0.000000000,0.000000000,0.234782208
0.720833218,0.000000000,0.000000000,0.358932346,0.000000000,0.000000000,9.800000000,0.971872164,0.000000000,0.000000000,0.235509016
0.729166550,0.000000000,0.000000000,0.358932346,0.000000000,0.000000000,9.800000000,0.971518862,0.000000000,0.000000000,0.236962237
0.733333216,0.000000000,0.000000000,0.344333968,0.000000000,0.000000000,9.800000000,0.971348624,0.000000000,0.000000000,0.237659107
0.737499882,0.000000000,0.000000000,0.344333968,0.000000000,0.000000000,9.800000000,0.971177886,0.000000000,0.000000000,0.238355854
0.741666548,0.000000000,0.000000000,0.344333968,0.000000000,0.000000000,9.800000000,0.971006649,0.000000000,0.000000000,0.239052480
0.745833214,0.000000000,0.000000000,0.329602844,0.000000000,0.000000000,9.800000000,0.970842269,0.000000000,0.000000000,0.239719187
0.754166546,0.000000000,0.000000000,0.329602844,0.000000000,0.000000000,9.800000000,0.970512137,0.000000000,0.000000000,0.241052262
0.758333212,0.000000000,0.000000000,0.314744651,0.000000000,0.000000000,9.800000000,0.970353866,0.000000000,0.000000000,0.241688592
0.762499878,0.000000000,0.000000000,0.314744651,0.000000000,0.000000000,9.800000000,0.970195178,0.000000000,0.000000000,0.242324818
0.766666544,0.000000000,0.000000000,0.314744651,0.000000000,0.000000000,9.800000000,0.970036072,0.000000000,0.000000000,0.242960940
0.770833210,0.000000000,0.000000000,0.299765118,-0.000000000,0.000000000,9.800000000,0.969884151,0.000000000,0.000000000,0.243566691
0.779166542,0.000000000,0.000000000,0.299765118,0.000000000,0.000000000,9.800000000,0.969579175,0.000000000,0.000000000,0.244777906
0.783333208,0.000000000,0.000000000,0.284670019,0.000000000,-0.000000000,9.800000000,0.969433836,0.000000000,0.000000000,0.245352884
0.787499874,0.000000000,0.000000000,0.284670019,0.000000000,0.000000000,9.800000000,0.969288156,0.000000000,0.000000000,0.245927776
0.791666540,0.000000000,0.000000000,0.284670019,0.000000000,0.000000000,9.800000000,0.969142135,0.000000000,0.000000000,0.246502581
0.795833206,0.000000000,0.000000000,0.269465176,-0.000000000,0.000000000,9.800000000,0.969003599,0.000000000,0.000000000,0.247046605
0.804166538,0.000000000,0.000000000,0.269465176,-0.000000000,-0.000000000,9.800000000,0.968725612,0.000000000,0.000000000,0.248134418
0.808333204,0.000000000,0.000000000,0.254156448,0.000000000,0.000000000,9.800000000,0.968594090,0.000000000,0.000000000,0.248647316
0.812499870,0.000000000,0.000000000,0.254156448,0.000000000,0.000000000,9.800000000,0.968462298,0.000000000,0.000000000,0.249160145
0.816666536,0.000000000,0.000000000,0.254156448,0.000000000,0.000000000,9.800000000,0.968330234,0.000000000,0.000000000,0.249672903
0.820833202,0.000000000,0.000000000,0.238749738,0.000000000,-0.000000000,9.800000000,0.968205928,0.000000000,0.000000000,0.250154515
0.829166534,0.000000000,0.000000000,0.238749738,0.000000000,-0.000000000,9.800000000,0.967956597,0.000000000,0.000000000,0.251117554
0.833333200,0.000000000,0.000000000,0.223250986,0.000000000,0.000000000,9.800000000,0.967839696,0.000000000,0.000000000,0.251567729
0.837499866,0.000000000,0.000000000,0.223250986,0.000000000,0.000000000,9.800000000,0.967722586,0.000000000,0.000000000,0.252017850
0.841666532,0.000000000,0.000000000,0.223250986,0.000000000,0.000000000,9.800000000,0.967605266,0.000000000,0.000000000,0.252467917
0.845833198,0.000000000,0.000000000,0.207666166,-0.000000000,-0.000000000,9.800000000,0.967495948,0.000000000,0.000000000,0.252886516
0.854166530,0.000000000,0.000000000,0.207666166,0.000000000,-0.000000000,9.800000000,0.967276770,0.000000000,0.000000000,0.253723571
0.858333196,0.000000000,0.000000000,0.192001287,0.000000000,0.000000000,9.800000000,0.967175202,0.000000000,0.000000000,0.254110464
0.862499862,0.000000000,0.000000000,0.192001287,0.000000000,0.000000000,9.800000000,0.967073480,0.000000000,0.000000000,0.254497317
0.866666528,0.000000000,0.000000000,0.192001287,0.000000000,-0.000000000,9.800000000,0.966971603,0.000000000,0.000000000,0.254884128
0.870833194,0.000000000,0.000000000,0.176262388,-0.000000000,-0.000000000,9.800000000,0.966877941,0.000000000,0.000000000,0.255239196
0.879166526,0.000000000,0.000000000,0.176262388,-0.000000000,-0.000000000,9.800000000,0.966690226,0.000000000,0.000000000,0.255949228
0.883333192,0.000000000,0.000000000,0.160455536,-0.000000000,0.000000000,9.800000000,0.966604613,0.000000000,0.000000000,0.256272361
0.887499858,0.000000000,0.000000000,0.160455536,-0.000000000,0.000000000,9.800000000,0.966518891,0.000000000,0.000000000,0.256595466
0.891666524,0.000000000,0.000000000,0.160455536,-0.000000000,-0.000000000,9.800000000,0.966433062,0.000000000,0.000000000,0.256918541
0.895833190,0.000000000,0.000000000,0.144586825,-0.000000000,-0.000000000,9.800000000,0.966355628,0.000000000,0.000000000,0.257209641
0.904166522,0.000000000,0.000000000,0.144586825,-0.000000000,-0.000000000,9.800000000,0.966200498,0.000000000,0.000000000,0.257791771
0.908333188,0.000000000,0.000000000,0.128662374,0.000000000,0.000000000,9.800000000,0.966131363,0.000000000,0.000000000,0.258050748
0.912499854,0.000000000,0.000000000,0.128662374,0.000000000,0.000000000,9.800000000,0.966062159,0.000000000,0.000000000,0.258309707
0.916666520,0.000000000,0.000000000,0.128662374,0.000000000,0.000000000,9.800000000,0.965992885,0.000000000,0.000000000,0.258568647
0.920833186,0.000000000,0.000000000,0.112688321,0.000000000,0.000000000,9.800000000,0.965932155,0.000000000,0.000000000,0.258795424
0.929166518,0.000000000,0.000000000,0.112688321,0.000000000,0.000000000,9.800000000,0.965810535,0.000000000,0.000000000,0.259248934
0.933333184,0.000000000,0.000000000,0.096670824,0.000000000,0.000000000,9.800000000,0.965758304,0.000000000,0.000000000,0.259443441
0.937499850,0.000000000,0.000000000,0.096670824,0.000000000,0.000000000,9.800000000,0.965706033,0.000000000,0.000000000,0.259637937
0.941666516,0.000000000,0.000000000,0.096670824,0.000000000,0.000000000,9.800000000,0.965653723,0.000000000,0.000000000,0.259832422
0.945833182,0.000000000,0.000000000,0.080616059,0.000000000,0.000000000,9.800000000,0.965610070,0.000000000,0.000000000,0.259994600
0.954166514,0.000000000,0.000000000,0.080616059,0.000000000,-0.000000000,9.800000000,0.965522684,0.000000000,0.000000000,0.260318934
0.958333180,0.000000000,0.000000000,0.064530215,0.000000000,0.000000000,9.800000000,0.965487678,0.000000000,0.000000000,0.260448735
0.962499846,0.000000000,0.000000000,0.064530215,-0.000000000,0.000000000,9.800000000,0.965452655,0.000000000,0.000000000,0.260578530
0.966666512,0.000000000,0.000000000,0.064530215,-0.000000000,0.000000000,9.800000000,0.965417615,0.000000000,0.000000000,0.260708321
0.970833178,0.000000000,0.000000000,0.048419494,-0.000000000,0.000000000,9.800000000,0.965391311,0.000000000,0.000000000,0.260805706
0.979166510,0.000000000,0.000000000,0.048419494,-0.000000000,-0.000000000,9.800000000,0.965338675,0.000000000,0.000000000,0.261000466
0.983333176,0.000000000,0.000000000,0.032290106,0.000000000,0.000000000,9.800000000,0.965321115,0.000000000,0.000000000,0.261065405
0.987499842,0.000000000,0.000000000,0.032290106,0.000000000,0.000000000,9.800000000,0.965303550,0.000000000,0.000000000,0.261130342
0.991666508,0.000000000,0.000000000,0.032290106,0.000000000,0.000000000,9.800000000,0.965285982,0.000000000,0.000000000,0.261195279
0.995833174,0.000000000,0.000000000,0.016148269,0.000000000,0.000000000,9.800000000,0.965277194,0.000000000,0.000000000,0.261227753
1.004166506,0.000000000,0.000000000,0.016148269,0.000000000,-0.000000000,9.800000000,0.965259615,0.000000000,0.000000000,0.261292700
1.008333172,0.000000000,0.000000000,0.000000207,-0.000000000,-0.000000000,9.800000000,0.965259615,0.000000000,0.000000000,0.261292701
1.012499838,0.000000000,0.000000000,0.000000207,-0.000000000,0.000000000,9.800000000,0.965259615,0.000000000,0.000000000,0.261292701
1.016666504,0.000000000,0.000000000,0.000000207,-0.000000000,0.000000000,9.800000000,0.965259615,0.000000000,0.000000000,0.261292702
1.020833170,0.000000000,0.000000000,-0.016147856,-0.000000000,0.000000000,9.800000000,0.965268405,0.000000000,0.000000000,0.261260229
1.029166502,0.000000000,0.000000000,-0.016147856,-0.000000000,0.000000000,9.800000000,0.965285981,0.000000000,0.000000000,0.261195282
1.033333168,0.000000000,0.000000000,-0.032289692,0.000000000,0.000000000,9.800000000,0.965303549,0.000000000,0.000000000,0.261130347
1.037499834,0.000000000,0.000000000,-0.032289692,0.000000000,0.000000000,9.800000000,0.965321113,0.000000000,0.000000000,0.261065410
1.041666500,0.000000000,0.000000000,-0.032289692,0.000000000,0.000000000,9.800000000,0.965338673,0.000000000,0.000000000,0.261000472
1.045833166,0.000000000,0.000000000,-0.048419081,0.000000000,0.000000000,9.800000000,0.965364996,0.000000000,0.000000000,0.260903094
1.054166498,0.000000000,0.000000000,-0.048419081,0.000000000,0.000000000,9.800000000,0.965417613,0.000000000,0.000000000,0.260708330
1.058333164,0.000000000,0.000000000,-0.064529803,0.000000000,0.000000000,9.800000000,0.965452653,0.000000000,0.000000000,0.260578540
1.062499830,0.000000000,0.000000000,-0.064529803,0.000000000,0.000000000,9.800000000,0.965487675,0.000000000,0.000000000,0.260448745
1.066666496,0.000000000,0.000000000,-0.064529803,-0.000000000,0.000000000,9.800000000,0.965522681,0.000000000,0.000000000,0.260318945
1.070833162,0.000000000,0.000000000,-0.080615648,0.000000000,0.000000000,9.800000000,0.965566387,0.000000000,0.000000000,0.260156783
1.079166494,0.000000000,0.000000000,-0.080615648,0.000000000,0.000000000,9.800000000,0.965653719,0.000000000,0.000000000,0.259832436
1.083333160,0.000000000,0.000000000,-0.096670414,0.000000000,-0.000000000,9.800000000,0.965706029,0.000000000,0.000000000,0.259637951
1.087499826,0.000000000,0.000000000,-0.096670414,0.000000000,-0.000000000,9.800000000,0.965758300,0.000000000,0.000000000,0.259443456
1.091666492,0.000000000,0.000000000,-0.096670414,0.000000000,-0.000000000,9.800000000,0.965810531,0.000000000,0.000000000,0.259248950
1.095833158,0.000000000,0.000000000,-0.112687912,0.000000000,-0.000000000,9.800000000,0.965871367,0.000000000,0.000000000,0.259022203
1.104166490,0.000000000,0.000000000,-0.112687912,0.000000000,0.000000000,9.800000000,0.965992880,0.000000000,0.000000000,0.258568666
1.108333156,0.000000000,0.000000000,-0.128661966,0.000000000,-0.000000000,9.800000000,0.966062154,0.000000000,0.000000000,0.258309727
1.112499822,0.000000000,0.000000000,-0.128661966,0.000000000,-0.000000000,9.800000000,0.966131358,0.000000000,0.000000000,0.258050768
1.116666488,0.000000000,0.000000000,-0.128661966,0.000000000,-0.000000000,9.800000000,0.966200493,0.000000000,0.000000000,0.257791792
1.120833154,0.000000000,0.000000000,-0.144586418,0.000000000,0.000000000,9.800000000,0.966278101,0.000000000,0.000000000,0.257500740
1.129166486,0.000000000,0.000000000,-0.144586418,0.000000000,0.000000000,9.800000000,0.966433056,0.000000000,0.000000000,0.256918565
1.133333152,0.000000000,0.000000000,-0.160455130,0.000000000,0.000000000,9.800000000,0.966518885,0.000000000,0.000000000,0.256595490
1.137499818,0.000000000,0.000000000,-0.160455130,0.000000000,-0.000000000,9.800000000,0.966604606,0.000000000,0.000000000,0.256272386
1.141666484,0.000000000,0.000000000,-0.160455130,0.000000000,-0.000000000,9.800000000,0.966690219,0.000000000,0.000000000,0.255949254
1.145833150,0.000000000,0.000000000,-0.176261984,0.000000000,0.000000000,9.800000000,0.966784142,0.000000000,0.000000000,0.255594256
1.154166482,0.000000000,0.000000000,-0.176261984,0.000000000,0.000000000,9.800000000,0.966971596,0.000000000,0.000000000,0.254884157
1.158333148,0.000000000,0.000000000,-0.192000885,-0.000000000,0.000000000,9.800000000,0.967073472,0.000000000,0.000000000,0.254497346
1.162499814,0.000000000,0.000000000,-0.192000885,-0.000000000,0.000000000,9.800000000,0.967175194,0.000000000,0.000000000,0.254110495
1.166666480,0.000000000,0.000000000,-0.192000885,-0.000000000,0.000000000,9.800000000,0.967276762,0.000000000,0.000000000,0.253723602
1.170833146,0.000000000,0.000000000,-0.207665766,0.000000000,0.000000000,9.800000000,0.967386441,0.000000000,0.000000000,0.253305099
1.179166478,0.000000000,0.000000000,-0.207665766,0.000000000,0.000000000,9.800000000,0.967605257,0.000000000,0.000000000,0.252467950
1.183333144,0.000000000,0.000000000,-0.223250588,0.000000000,0.000000000,9.800000000,0.967722577,0.000000000,0.000000000,0.252017884
1.187499810,0.000000000,0.000000000,-0.223250588,0.000000000,0.000000000,9.800000000,0.967839687,0.000000000,0.000000000,0.251567764
1.191666476,0.000000000,0.000000000,-0.223250588,0.000000000,0.000000000,9.800000000,0.967956588,0.000000000,0.000000000,0.251117589
1.195833142,0.000000000,0.000000000,-0.238749342,-0.000000000,0.000000000,9.800000000,0.968081373,0.000000000,0.000000000,0.250636102
1.204166474,0.000000000,0.000000000,-0.238749342,-0.000000000,0.000000000,9.800000000,0.968330224,0.000000000,0.000000000,0.249672942
1.208333140,0.000000000,0.000000000,-0.254156055,-0.000000000,0.000000000,9.800000000,0.968462288,0.000000000,0.000000000,0.249160184
1.212499806,0.000000000,0.000000000,-0.254156055,0.000000000,0.000000000,9.800000000,0.968594080,0.000000000,0.000000000,0.248647356
1.216666472,0.000000000,0.000000000,-0.254156055,0.000000000,0.000000000,9.800000000,0.968725601,0.000000000,0.000000000,0.248134459
1.220833138,0.000000000,0.000000000,-0.269464785,-0.000000000,0.000000000,9.800000000,0.968864747,0.000000000,0.000000000,0.247590592
1.229166470,0.000000000,0.000000000,-0.269464785,-0.000000000,0.000000000,9.800000000,0.969142124,0.000000000,0.000000000,0.246502624
1.233333136,0.000000000,0.000000000,-0.284669632,-0.000000000,0.000000000,9.800000000,0.969288145,0.000000000,0.000000000,0.245927820
1.237499802,0.000000000,0.000000000,-0.284669632,-0.000000000,0.000000000,9.800000000,0.969433825,0.000000000,0.000000000,0.245352929
1.241666468,0.000000000,0.000000000,-0.284669632,0.000000000,0.000000000,9.800000000,0.969579164,0.000000000,0.000000000,0.244777952
1.245833134,0.000000000,0.000000000,-0.299764733,0.000000000,-0.000000000,9.800000000,0.969731841,0.000000000,0.000000000,0.244172392
1.254166466,0.000000000,0.000000000,-0.299764733,0.000000000,-0.000000000,9.800000000,0.970036060,0.000000000,0.000000000,0.242960988
1.258333132,0.000000000,0.000000000,-0.314744269,0.000000000,0.000000000,9.800000000,0.970195165,0.000000000,0.000000000,0.242324867
1.262499798,0.000000000,0.000000000,-0.314744269,0.000000000,0.000000000,9.800000000,0.970353853,0.000000000,0.000000000,0.241688641
1.266666464,0.000000000,0.000000000,-0.314744269,0.000000000,0.000000000,9.800000000,0.970512124,0.000000000,0.000000000,0.241052312
1.270833130,0.000000000,0.000000000,-0.329602465,0.000000000,-0.000000000,9.800000000,0.970677419,0.000000000,0.000000000,0.240385832
1.279166462,0.000000000,0.000000000,-0.329602465,0.000000000,-0.000000000,9.800000000,0.971006636,0.000000000,0.000000000,0.239052532
1.283333128,0.000000000,0.000000000,-0.344333593,-0.000000000,0.000000000,9.800000000,0.971177873,0.000000000,0.000000000,0.238355908
1.287499794,0.000000000,0.000000000,-0.344333593,0.000000000,0.000000000,9.800000000,0.971348611,0.000000000,0.000000000,0.237659161
1.291666460,0.000000000,0.000000000,-0.344333593,0.000000000,0.000000000,9.800000000,0.971518848,0.000000000,0.000000000,0.236962291
1.295833126,0.000000000,0.000000000,-0.358931974,0.000000000,-0.000000000,9.800000000,0.971695771,0.000000000,0.000000000,0.236235748
1.304166458,0.000000000,0.000000000,-0.358931974,0.000000000,-0.000000000,9.800000000,0.972047986,0.000000000,0.000000000,0.234782265
1.308333124,0.000000000,0.000000000,-0.373391980,0.000000000,-0.000000000,9.800000000,0.972230329,0.000000000,0.000000000,0.234026038
1.312499790,0.000000000,0.000000000,-0.373391980,0.000000000,-0.000000000,9.800000000,0.972412084,0.000000000,0.000000000,0.233269670
1.316666456,0.000000000,0.000000000,-0.373391980,0.000000000,-0.000000000,9.800000000,0.972593250,0.000000000,0.000000000,0.232513160
1.320833122,0.000000000,0.000000000,-0.387708036,0.000000000,0.000000000,9.800000000,0.972780740,0.000000000,0.000000000,0.231727496
1.329166454,0.000000000,0.000000000,-0.387708036,-0.000000000,0.000000000,9.800000000,0.973153814,0.000000000,0.000000000,0.230155716
1.333333120,0.000000000,0.000000000,-0.401874624,0.000000000,-0.000000000,9.800000000,0.973346169,0.000000000,0.000000000,0.229340873
1.337499786,0.000000000,0.000000000,-0.401874624,0.000000000,0.000000000,9.800000000,0.973537840,0.000000000,0.000000000,0.228525870
1.341666452,0.000000000,0.000000000,-0.401874624,0.000000000,0.000000000,9.800000000,0.973728830,0.000000000,0.000000000,0.227710707
1.345833118,0.000000000,0.000000000,-0.415886281,0.000000000,0.000000000,9.800000000,0.973925760,0.000000000,0.000000000,0.226866954
1.354166450,0.000000000,0.000000000,-0.415886281,0.000000000,0.000000000,9.800000000,0.974317426,0.000000000,0.000000000,0.225178938
1.358333116,0.000000000,0.000000000,-0.429737607,0.000000000,0.000000000,9.800000000,0.974518635,0.000000000,0.000000000,0.224306554
1.362499782,0.000000000,0.000000000,-0.429737607,0.000000000,0.000000000,9.800000000,0.974719063,0.000000000,0.000000000,0.223433991
1.366666448,0.000000000,0.000000000,-0.429737607,0.000000000,0.000000000,9.800000000,0.974918710,0.000000000,0.000000000,0.222561249
1.370833114,0.000000000,0.000000000,-0.443423260,-0.000000000,0.000000000,9.800000000,0.975123895,0.000000000,0.000000000,0.221660526
1.379166446,0.000000000,0.000000000,-0.443423260,-0.000000000,0.000000000,9.800000000,0.975531770,0.000000000,0.000000000,0.219858513
1.383333112,0.000000000,0.000000000,-0.456937965,0.000000000,0.000000000,9.800000000,0.975740623,0.000000000,0.000000000,0.218929752
1.387499778,0.000000000,0.000000000,-0.456937965,0.000000000,0.000000000,9.800000000,0.975948592,0.000000000,0.000000000,0.218000793
1.391666444,0.000000000,0.000000000,-0.456937965,0.000000000,0.000000000,9.800000000,0.976155677,0.000000000,0.000000000,0.217071636
1.395833110,0.000000000,0.000000000,-0.470276512,0.000000000,0.000000000,9.800000000,0.976367882,0.000000000,0.000000000,0.216115151
1.404166442,0.000000000,0.000000000,-0.470276512,0.000000000,0.000000000,9.800000000,0.976789482,0.000000000,0.000000000,0.214201559
1.408333108,0.000000000,0.000000000,-0.483433759,0.000000000,0.000000000,9.800000000,0.977004720,0.000000000,0.000000000,0.213217673
1.412499774,0.000000000,0.000000000,-0.483433759,0.000000000,0.000000000,9.800000000,0.977218968,0.000000000,0.000000000,0.212233572
1.416666440,0.000000000,0.000000000,-0.483433759,0.000000000,0.000000000,9.800000000,0.977432224,0.000000000,0.000000000,0.211249255
1.420833106,0.000000000,0.000000000,-0.496404632,0.000000000,0.000000000,9.800000000,0.977650170,0.000000000,0.000000000,0.210238305
1.429166438,0.000000000,0.000000000,-0.496404632,0.000000000,0.000000000,9.800000000,0.978082925,0.000000000,0.000000000,0.208215732
1.433333104,0.000000000,0.000000000,-0.509184133,-0.000000000,-0.000000000,9.800000000,0.978303250,0.000000000,0.000000000,0.207178064
1.437499770,0.000000000,0.000000000,-0.509184133,-0.000000000,0.000000000,9.800000000,0.978522474,0.000000000,0.000000000,0.206140164
1.441666436,0.000000000,0.000000000,-0.509184133,-0.000000000,0.000000000,9.800000000,0.978740597,0.000000000,0.000000000,0.205102031
1.445833102,0.000000000,0.000000000,-0.521767333,-0.000000000,0.000000000,9.800000000,0.978962968,0.000000000,0.000000000,0.204038004
1.454166434,0.000000000,0.000000000,-0.521767333,0.000000000,0.000000000,9.800000000,0.979404239,0.000000000,0.000000000,0.201909229
1.458333100,0.000000000,0.000000000,-0.534149382,-0.000000000,0.000000000,9.800000000,0.979628319,0.000000000,0.000000000,0.200819212
1.462499766,0.000000000,0.000000000,-0.534149382,0.000000000,0.000000000,9.800000000,0.979851187,0.000000000,0.000000000,0.199728947
1.466666432,0.000000000,0.000000000,-0.534149382,0.000000000,0.000000000,9.800000000,0.980072840,0.000000000,0.000000000,0.198638434
1.470833098,0.000000000,0.000000000,-0.546325506,0.000000000,-0.000000000,9.800000000,0.980298291,0.000000000,0.000000000,0.197522808
1.479166430,0.000000000,0.000000000,-0.546325506,0.000000000,-0.000000000,9.800000000,0.980745383,0.000000000,0.000000000,0.195290791
1.483333096,0.000000000,0.000000000,-0.558291012,0.000000000,-0.000000000,9.800000000,0.980971864,0.000000000,0.000000000,0.194149948
1.487499762,0.000000000,0.000000000,-0.558291012,-0.000000000,-0.000000000,9.800000000,0.981197017,0.000000000,0.000000000,0.193008842
1.491666428,0.000000000,0.000000000,-0.558291012,-0.000000000,-0.000000000,9.800000000,0.981420843,0.000000000,0.000000000,0.191867476
1.495833094,0.000000000,0.000000000,-0.570041285,0.000000000,0.000000000,9.800000000,0.981648010,0.000000000,0.000000000,0.190701819
1.504166426,0.000000000,0.000000000,-0.570041285,-0.000000000,0.000000000,9.800000000,0.982098190,0.000000000,0.000000000,0.188369701
1.508333092,0.000000000,0.000000000,-0.581571797,0.000000000,0.000000000,9.800000000,0.982325700,0.000000000,0.000000000,0.187179646
1.512499758,0.000000000,0.000000000,-0.581571797,-0.000000000,0.000000000,9.800000000,0.982551767,0.000000000,0.000000000,0.185989315
1.516666424,0.000000000,0.000000000,-0.581571797,-0.000000000,0.000000000,9.800000000,0.982776392,0.000000000,0.000000000,0.184798711
1.520833090,0.000000000,0.000000000,-0.592878103,-0.000000000,0.000000000,9.800000000,0.983003898,0.000000000,0.000000000,0.183584682
1.529166422,0.000000000,0.000000000,-0.592878103,0.000000000,0.000000000,9.800000000,0.983454412,0.000000000,0.000000000,0.181155785
1.533333088,0.000000000,0.000000000,-0.603955842,0.000000000,0.000000000,9.800000000,0.983681572,0.000000000,0.000000000,0.179918220
1.537499754,0.000000000,0.000000000,-0.603955842,0.000000000,0.000000000,9.800000000,0.983907173,0.000000000,0.000000000,0.178680369
1.541666420,0.000000000,0.000000000,-0.603955842,0.000000000,0.000000000,9.800000000,0.984131217,0.000000000,0.000000000,0.177442235
1.545833086,0.000000000,0.000000000,-0.614800745,0.000000000,0.000000000,9.800000000,0.984357684,0.000000000,0.000000000,0.176181581
1.554166418,0.000000000,0.000000000,-0.614800745,0.000000000,0.000000000,9.800000000,0.984805773,0.000000000,0.000000000,0.173659406
1.558333084,0.000000000,0.000000000,-0.625408631,0.000000000,-0.000000000,9.800000000,0.985031204,0.000000000,0.000000000,0.172376122
1.562499750,0.000000000,0.000000000,-0.625408631,0.000000000,-0.000000000,9.800000000,0.985254962,0.000000000,0.000000000,0.171092545
1.566666416,0.000000000,0.000000000,-0.625408631,-0.000000000,-0.000000000,9.800000000,0.985477048,0.000000000,0.000000000,0.169808678
1.570833082,0.000000000,0.000000000,-0.635775409,0.000000000,0.000000000,9.800000000,0.985701101,0.000000000,0.000000000,0.168503233
1.579166414,0.000000000,0.000000000,-0.635775409,0.000000000,0.000000000,9.800000000,0.986144018,0.000000000,0.000000000,0.165891460
1.583333080,0.000000000,0.000000000,-0.645897085,0.000000000,0.000000000,9.800000000,0.986366351,0.000000000,0.000000000,0.164564336
1.587499746,0.000000000,0.000000000,-0.645897085,0.000000000,0.000000000,9.800000000,0.986586899,0.000000000,0.000000000,0.163236915
1.591666412,0.000000000,0.000000000,-0.645897085,0.000000000,0.000000000,9.800000000,0.986805661,0.000000000,0.000000000,0.161909197
1.595833078,0.000000000,0.000000000,-0.655769755,0.000000000,0.000000000,9.800000000,0.987025938,0.000000000,0.000000000,0.160560886
1.604166410,0.000000000,0.000000000,-0.655769755,0.000000000,0.000000000,9.800000000,0.987460965,0.000000000,0.000000000,0.157863366
1.608333076,0.000000000,0.000000000,-0.665389613,0.000000000,0.000000000,9.800000000,0.987678851,0.000000000,0.000000000,0.156494369
1.612499742,0.000000000,0.000000000,-0.665389613,0.000000000,0.000000000,9.800000000,0.987894839,0.000000000,0.000000000,0.155125071
1.616666408,0.000000000,0.000000000,-0.665389613,0.000000000,0.000000000,9.800000000,0.988108928,0.000000000,0.000000000,0.153755475
1.620833074,0.000000000,0.000000000,-0.674752951,0.000000000,-0.000000000,9.800000000,0.988324091,0.000000000,0.000000000,0.152366304
1.629166406,0.000000000,0.000000000,-0.674752951,0.000000000,-0.000000000,9.800000000,0.988748558,0.000000000,0.000000000,0.149587062
1.633333072,0.000000000,0.000000000,-0.683856159,0.000000000,0.000000000,9.800000000,0.988960671,0.000000000,0.000000000,0.148178240
1.637499738,0.000000000,0.000000000,-0.683856159,0.000000000,0.000000000,9.800000000,0.989170777,0.000000000,0.000000000,0.146769118
1.641666404,0.000000000,0.000000000,-0.683856159,0.000000000,0.000000000,9.800000000,0.989378875,0.000000000,0.000000000,0.145359698
1.645833070,0.000000000,0.000000000,-0.692695727,0.000000000,0.000000000,9.800000000,0.989587616,0.000000000,0.000000000,0.143931758
1.654166402,0.000000000,0.000000000,-0.692695727,-0.000000000,0.000000000,9.800000000,0.989998914,0.000000000,0.000000000,0.141074984
1.658333068,0.000000000,0.000000000,-0.701268248,0.000000000,0.000000000,9.800000000,0.990203964,0.000000000,0.000000000,0.139628470
1.662499734,0.000000000,0.000000000,-0.701268248,-0.000000000,-0.000000000,9.800000000,0.990406901,0.000000000,0.000000000,0.138181658
1.666666400,0.000000000,0.000000000,-0.701268248,0.000000000,0.000000000,9.800000000,0.990607724,0.000000000,0.000000000,0.136734551
1.670833066,0.000000000,0.000000000,-0.709570417,0.000000000,-0.000000000,9.800000000,0.990808772,0.000000000,0.000000000,0.135270015
1.679166398,0.000000000,0.000000000,-0.709570417,0.000000000,0.000000000,9.800000000,0.991204373,0.000000000,0.000000000,0.132340059
1.683333064,0.000000000,0.000000000,-0.717599033,0.000000000,0.000000000,9.800000000,0.991401113,0.000000000,0.000000000,0.130858063
1.687499730,0.000000000,0.000000000,-0.717599033,0.000000000,-0.000000000,9.800000000,0.991595638,0.000000000,0.000000000,0.129375775
1.691666396,0.000000000,0.000000000,-0.717599033,0.000000000,0.000000000,9.800000000,0.991787946,0.000000000,0.000000000,0.127893198
1.695833062,0.000000000,0.000000000,-0.725351002,-0.000000000,0.000000000,9.800000000,0.991980079,0.000000000,0.000000000,0.126394315
1.704166394,0.000000000,0.000000000,-0.725351002,0.000000000,0.000000000,9.800000000,0.992357549,0.000000000,0.000000000,0.123395685
1.708333060,0.000000000,0.000000000,-0.732823333,0.000000000,0.000000000,9.800000000,0.992544782,0.000000000,0.000000000,0.121880495
1.712499726,0.000000000,0.000000000,-0.732823333,0.000000000,-0.000000000,9.800000000,0.992729702,0.000000000,0.000000000,0.120365020
1.716666392,0.000000000,0.000000000,-0.732823333,0.000000000,-0.000000000,9.800000000,0.992912308,0.000000000,0.000000000,0.118849265
1.720833058,0.000000000,0.000000000,-0.740013148,0.000000000,0.000000000,9.800000000,0.993094358,0.000000000,0.000000000,0.117318358
1.729166390,0.000000000,0.000000000,-0.740013148,-0.000000000,-0.000000000,9.800000000,0.993451374,0.000000000,0.000000000,0.114255710
1.733333056,0.000000000,0.000000000,-0.746917673,0.000000000,0.000000000,9.800000000,0.993627962,0.000000000,0.000000000,0.112709684
1.737499722,0.000000000,0.000000000,-0.746917673,0.000000000,0.000000000,9.800000000,0.993802144,0.000000000,0.000000000,0.111163386
1.741666388,0.000000000,0.000000000,-0.746917673,-0.000000000,0.000000000,9.800000000,0.993973920,0.000000000,0.000000000,0.109616818
1.745833054,0.000000000,0.000000000,-0.753534247,0.000000000,0.000000000,9.800000000,0.994144778,0.000000000,0.000000000,0.108056281
1.754166386,0.000000000,0.000000000,-0.753534247,0.000000000,0.000000000,9.800000000,0.994479145,0.000000000,0.000000000,0.104934411
1.758333052,0.000000000,0.000000000,-0.759860320,-0.000000000,-0.000000000,9.800000000,0.994644014,0.000000000,0.000000000,0.103359978
1.762499718,0.000000000,0.000000000,-0.759860320,-0.000000000,-0.000000000,9.800000000,0.994806391,0.000000000,0.000000000,0.101785286
1.766666384,0.000000000,0.000000000,-0.759860320,-0.000000000,-0.000000000,9.800000000,0.994966275,0.000000000,0.000000000,0.100210339
1.770833050,0.000000000,0.000000000,-0.765893452,0.000000000,0.000000000,9.800000000,0.995124905,0.000000000,0.000000000,0.098622633
1.779166382,0.000000000,0.000000000,-0.765893452,0.000000000,0.000000000,9.800000000,0.995434564,0.000000000,0.000000000,0.095446471
1.783333048,0.000000000,0.000000000,-0.771631318,0.000000000,0.000000000,9.800000000,0.995586714,0.000000000,0.000000000,0.093846123
1.787499714,0.000000000,0.000000000,-0.771631318,0.000000000,0.000000000,9.800000000,0.995736291,0.000000000,0.000000000,0.092245532
1.791666380,0.000000000,0.000000000,-0.771631318,0.000000000,0.000000000,9.800000000,0.995883295,0.000000000,0.000000000,0.090644703
1.795833046,0.000000000,0.000000000,-0.777071705,0.000000000,0.000000000,9.800000000,0.996028735,0.000000000,0.000000000,0.089032350
1.804166378,0.000000000,0.000000000,-0.777071705,0.000000000,0.000000000,9.800000000,0.996311782,0.000000000,0.000000000,0.085806949
1.808333044,0.000000000,0.000000000,-0.782212517,-0.000000000,0.000000000,9.800000000,0.996450291,0.000000000,0.000000000,0.084183237
1.812499710,0.000000000,0.000000000,-0.782212517,-0.000000000,-0.000000000,9.800000000,0.996586154,0.000000000,0.000000000,0.082559301
1.816666376,0.000000000,0.000000000,-0.782212517,0.000000000,0.000000000,9.800000000,0.996719370,0.000000000,0.000000000,0.080935146
1.820833042,0.000000000,0.000000000,-0.787051770,-0.000000000,-0.000000000,9.800000000,0.996850738,0.000000000,0.000000000,0.079300727
1.829166374,0.000000000,0.000000000,-0.787051770,-0.000000000,-0.000000000,9.800000000,0.997105435,0.000000000,0.000000000,0.076031252
1.833333040,0.000000000,0.000000000,-0.791587601,0.000000000,0.000000000,9.800000000,0.997229465,0.000000000,0.000000000,0.074386782
1.837499706,0.000000000,0.000000000,-0.791587601,-0.000000000,0.000000000,9.800000000,0.997350784,0.000000000,0.000000000,0.072742110
1.841666372,0.000000000,0.000000000,-0.791587601,0.000000000,0.000000000,9.800000000,0.997469389,0.000000000,0.000000000,0.071097240
1.845833038,0.000000000,0.000000000,-0.795818259,0.000000000,0.000000000,9.800000000,0.997585894,0.000000000,0.000000000,0.069443385
1.854166370,0.000000000,0.000000000,-0.795818259,-0.000000000,-0.000000000,9.800000000,0.997810677,0.000000000,0.000000000,0.066135105
1.858333036,0.000000000,0.000000000,-0.799742115,-0.000000000,-0.000000000,9.800000000,0.997919482,0.000000000,0.000000000,0.064472532
1.862499702,0.000000000,0.000000000,-0.799742115,-0.000000000,-0.000000000,9.800000000,0.998025516,0.000000000,0.000000000,0.062809781
1.866666368,0.000000000,0.000000000,-0.799742115,-0.000000000,0.000000000,9.800000000,0.998128780,0.000000000,0.000000000,0.061146855
1.870833034,0.000000000,0.000000000,-0.803357654,0.000000000,0.000000000,9.800000000,0.998229721,0.000000000,0.000000000,0.059476241
1.879166366,0.000000000,0.000000000,-0.803357654,0.000000000,0.000000000,9.800000000,0.998423215,0.000000000,0.000000000,0.056134516
1.883333032,0.000000000,0.000000000,-0.806663484,-0.000000000,0.000000000,9.800000000,0.998516142,0.000000000,0.000000000,0.054456539
1.887499698,0.000000000,0.000000000,-0.806663484,-0.000000000,-0.000000000,9.800000000,0.998606249,0.000000000,0.000000000,0.052778408
1.891666364,0.000000000,0.000000000,-0.806663484,-0.000000000,0.000000000,9.800000000,0.998693535,0.000000000,0.000000000,0.051100128
1.895833030,0.000000000,0.000000000,-0.809658330,-0.000000000,0.000000000,9.800000000,0.998778309,0.000000000,0.000000000,0.049415472
1.904166362,0.000000000,0.000000000,-0.809658330,0.000000000,0.000000000,9.800000000,0.998939332,0.000000000,0.000000000,0.046045743
1.908333028,0.000000000,0.000000000,-0.812341038,0.000000000,-0.000000000,9.800000000,0.999015828,0.000000000,0.000000000,0.044355096
1.912499694,0.000000000,0.000000000,-0.812341038,0.000000000,-0.000000000,9.800000000,0.999089463,0.000000000,0.000000000,0.042664322
1.916666360,0.000000000,0.000000000,-0.812341038,0.000000000,-0.000000000,9.800000000,0.999160237,0.000000000,0.000000000,0.040973425
1.920833026,0.000000000,0.000000000,-0.814710573,0.000000000,-0.000000000,9.800000000,0.999228342,0.000000000,0.000000000,0.039277479
1.929166358,0.000000000,0.000000000,-0.814710573,0.000000000,0.000000000,9.800000000,0.999355917,0.000000000,0.000000000,0.035885252
1.933333024,0.000000000,0.000000000,-0.816766021,-0.000000000,-0.000000000,9.800000000,0.999415532,0.000000000,0.000000000,0.034184701
1.937499690,0.000000000,0.000000000,-0.816766021,-0.000000000,-0.000000000,9.800000000,0.999472254,0.000000000,0.000000000,0.032484051
1.941666356,0.000000000,0.000000000,-0.816766021,0.000000000,-0.000000000,9.800000000,0.999526082,0.000000000,0.000000000,0.030783308
1.945833022,0.000000000,0.000000000,-0.818506591,0.000000000,-0.000000000,9.800000000,0.999577121,0.000000000,0.000000000,0.029078850
1.954166354,0.000000000,0.000000000,-0.818506591,0.000000000,-0.000000000,9.800000000,0.999670479,0.000000000,0.000000000,0.025669686
1.958333020,0.000000000,0.000000000,-0.819931610,0.000000000,0.000000000,9.800000000,0.999712870,0.000000000,0.000000000,0.023962022
1.962499686,0.000000000,0.000000000,-0.819931610,0.000000000,0.000000000,9.800000000,0.999752343,0.000000000,0.000000000,0.022254288
1.966666352,0.000000000,0.000000000,-0.819931610,0.000000000,0.000000000,9.800000000,0.999788899,0.000000000,0.000000000,0.020546488
1.970833018,0.000000000,0.000000000,-0.821040531,-0.000000000,0.000000000,9.800000000,0.999822581,0.000000000,0.000000000,0.018836320
1.979166350,0.000000000,0.000000000,-0.821040531,-0.000000000,0.000000000,9.800000000,0.999881169,0.000000000,0.000000000,0.015415821
1.983333016,0.000000000,0.000000000,-0.821832925,0.000000000,0.000000000,9.800000000,0.999906098,0.000000000,0.000000000,0.013703851
1.987499682,0.000000000,0.000000000,-0.821832925,0.000000000,-0.000000000,9.800000000,0.999928095,0.000000000,0.000000000,0.011991841
1.991666348,0.000000000,0.000000000,-0.821832925,-0.000000000,-0.000000000,9.800000000,0.999947162,0.000000000,0.000000000,0.010279796
1.995833014,0.000000000,0.000000000,-0.822308487,-0.000000000,-0.000000000,9.800000000,0.999963305,0.000000000,0.000000000,0.008566730
2.004166346,0.000000000,0.000000000,-0.822308487,0.000000000,-0.000000000,9.800000000,0.999986787,0.000000000,0.000000000,0.005140527
2.008333012,0.000000000,0.000000000,-0.822467033,-0.000000000,0.000000000,9.800000000,0.999994128,0.000000000,0.000000000,0.003427070
2.012499678,0.000000000,0.000000000,-0.822467033,0.000000000,0.000000000,9.800000000,0.999998532,0.000000000,0.000000000,0.001713603
2.016666344,0.000000000,0.000000000,-0.822467033,-0.000000000,0.000000000,9.800000000,1.000000000,0.000000000,0.000000000,0.000000132
2.020833010,0.000000000,0.000000000,-0.822308503,0.000000000,-0.000000000,9.800000000,0.999998533,0.000000000,0.000000000,-0.001713010
2.029166342,0.000000000,0.000000000,-0.822308503,-0.000000000,0.000000000,9.800000000,0.999986794,0.000000000,0.000000000,-0.005139273
2.033333008,0.000000000,0.000000000,-0.821832958,0.000000000,0.000000000,9.800000000,0.999976529,0.000000000,0.000000000,-0.006851394
2.037499674,0.000000000,0.000000000,-0.821832958,0.000000000,0.000000000,9.800000000,0.999963333,0.000000000,0.000000000,-0.008563495
2.041666340,0.000000000,0.000000000,-0.821832958,0.000000000,0.000000000,9.800000000,0.999947205,0.000000000,0.000000000,-0.010275570
2.045833006,0.000000000,0.000000000,-0.821040580,0.000000000,0.000000000,9.800000000,0.999928166,0.000000000,0.000000000,-0.011985965
2.054166338,0.000000000,0.000000000,-0.821040580,-0.000000000,-0.000000000,9.800000000,0.999881311,0.000000000,0.000000000,-0.015406644
2.058333004,0.000000000,0.000000000,-0.819931675,-0.000000000,0.000000000,9.800000000,0.999853534,0.000000000,0.000000000,-0.017114609
2.062499670,0.000000000,0.000000000,-0.819931675,0.000000000,0.000000000,9.800000000,0.999822841,0.000000000,0.000000000,-0.018822524
2.066666336,0.000000000,0.000000000,-0.819931675,-0.000000000,-0.000000000,9.800000000,0.999789229,0.000000000,0.000000000,-0.020530383
2.070833002,0.000000000,0.000000000,-0.818506672,0.000000000,-0.000000000,9.800000000,0.999752767,0.000000000,0.000000000,-0.022235215
2.079166334,0.000000000,0.000000000,-0.818506672,0.000000000,-0.000000000,9.800000000,0.999671121,0.000000000,0.000000000,-0.025644680
2.083333000,0.000000000,0.000000000,-0.816766118,-0.000000000,-0.000000000,9.800000000,0.999626037,0.000000000,0.000000000,-0.027345678
2.087499666,0.000000000,0.000000000,-0.816766118,-0.000000000,-0.000000000,9.800000000,0.999578059,0.000000000,0.000000000,-0.029046597
2.091666332,0.000000000,0.000000000,-0.816766118,0.000000000,-0.000000000,9.800000000,0.999527186,0.000000000,0.000000000,-0.030747432
2.095832998,0.000000000,0.000000000,-0.814710686,0.000000000,0.000000000,9.800000000,0.999473558,0.000000000,0.000000000,-0.032443898
2.104166330,0.000000000,0.000000000,-0.814710686,0.000000000,0.000000000,9.800000000,0.999357665,0.000000000,0.000000000,-0.035836545
2.108332996,0.000000000,0.000000000,-0.812341167,-0.000000000,-0.000000000,9.800000000,0.999295585,0.000000000,0.000000000,-0.037527783
2.112499662,0.000000000,0.000000000,-0.812341167,-0.000000000,-0.000000000,9.800000000,0.999230642,0.000000000,0.000000000,-0.039218914
2.116666328,0.000000000,0.000000000,-0.812341167,-0.000000000,-0.000000000,9.800000000,0.999162838,0.000000000,0.000000000,-0.040909932
2.120832994,0.000000000,0.000000000,-0.809658476,-0.000000000,-0.000000000,9.800000000,0.999092411,0.000000000,0.000000000,-0.042595249
2.129166326,0.000000000,0.000000000,-0.809658476,0.000000000,0.000000000,9.800000000,0.998943027,0.000000000,0.000000000,-0.045965515
2.133332992,0.000000000,0.000000000,-0.806663646,0.000000000,-0.000000000,9.800000000,0.998864369,0.000000000,0.000000000,-0.047644222
2.137499658,0.000000000,0.000000000,-0.806663646,0.000000000,-0.000000000,9.800000000,0.998782890,0.000000000,0.000000000,-0.049322794
2.141666324,0.000000000,0.000000000,-0.806663646,0.000000000,-0.000000000,9.800000000,0.998698591,0.000000000,0.000000000,-0.051001227
2.145832990,0.000000000,0.000000000,-0.803357831,-0.000000000,0.000000000,9.800000000,0.998611833,0.000000000,0.000000000,-0.052672639
2.154166322,0.000000000,0.000000000,-0.803357831,-0.000000000,0.000000000,9.800000000,0.998429927,0.000000000,0.000000000,-0.056015015
2.158332988,0.000000000,0.000000000,-0.799742308,-0.000000000,0.000000000,9.800000000,0.998335212,0.000000000,0.000000000,-0.057678450
2.162499654,0.000000000,0.000000000,-0.799742308,0.000000000,0.000000000,9.800000000,0.998237727,0.000000000,0.000000000,-0.059341725
2.166666320,0.000000000,0.000000000,-0.799742308,-0.000000000,0.000000000,9.800000000,0.998137471,0.000000000,0.000000000,-0.061004835
2.170832986,0.000000000,0.000000000,-0.795818468,-0.000000000,0.000000000,9.800000000,0.998034955,0.000000000,0.000000000,-0.062659617
2.179166318,0.000000000,0.000000000,-0.795818468,-0.000000000,0.000000000,9.800000000,0.997821695,0.000000000,0.000000000,-0.065968660
2.183332984,0.000000000,0.000000000,-0.791587825,-0.000000000,-0.000000000,9.800000000,0.997711547,0.000000000,0.000000000,-0.067614119
2.187499650,0.000000000,0.000000000,-0.791587825,0.000000000,-0.000000000,9.800000000,0.997598685,0.000000000,0.000000000,-0.069259393
2.191666316,0.000000000,0.000000000,-0.791587825,-0.000000000,0.000000000,9.800000000,0.997483110,0.000000000,0.000000000,-0.070904479
2.195832982,0.000000000,0.000000000,-0.787052010,0.000000000,0.000000000,9.800000000,0.997365508,0.000000000,0.000000000,-0.072539948
2.204166314,0.000000000,0.000000000,-0.787052010,0.000000000,-0.000000000,9.800000000,0.997122259,0.000000000,0.000000000,-0.075810295
2.208332980,0.000000000,0.000000000,-0.782212772,0.000000000,0.000000000,9.800000000,0.996997394,0.000000000,0.000000000,-0.077435114
2.212499646,0.000000000,0.000000000,-0.782212772,0.000000000,-0.000000000,9.800000000,0.996869881,0.000000000,0.000000000,-0.079059727
2.216666312,0.000000000,0.000000000,-0.782212772,0.000000000,-0.000000000,9.800000000,0.996739721,0.000000000,0.000000000,-0.080684130
2.220832978,0.000000000,0.000000000,-0.777071976,0.000000000,0.000000000,9.800000000,0.996607795,0.000000000,0.000000000,-0.082297645
2.229166310,0.000000000,0.000000000,-0.777071976,0.000000000,0.000000000,9.800000000,0.996336109,0.000000000,0.000000000,-0.085524024
2.233332976,0.000000000,0.000000000,-0.771631604,0.000000000,-0.000000000,9.800000000,0.996197336,0.000000000,0.000000000,-0.087125589
2.237499642,0.000000000,0.000000000,-0.771631604,-0.000000000,-0.000000000,9.800000000,0.996055989,0.000000000,0.000000000,-0.088726928
2.241666308,0.000000000,0.000000000,-0.771631604,-0.000000000,-0.000000000,9.800000000,0.995912067,0.000000000,0.000000000,-0.090328038
2.245832974,0.000000000,0.000000000,-0.765893753,0.000000000,0.000000000,9.800000000,0.995766671,0.000000000,0.000000000,-0.091917011
2.254166306,0.000000000,0.000000000,-0.765893753,0.000000000,0.000000000,9.800000000,0.995468273,0.000000000,0.000000000,-0.095094252
2.258332972,0.000000000,0.000000000,-0.759860636,0.000000000,0.000000000,9.800000000,0.995316488,0.000000000,0.000000000,-0.096670001
2.262499638,0.000000000,0.000000000,-0.759860636,0.000000000,0.000000000,9.800000000,0.995162208,0.000000000,0.000000000,-0.098245507
2.266666304,0.000000000,0.000000000,-0.759860636,0.000000000,0.000000000,9.800000000,0.995005434,0.000000000,0.000000000,-0.099820768
2.270832970,0.000000000,0.000000000,-0.753534579,0.000000000,-0.000000000,9.800000000,0.994847503,0.000000000,0.000000000,-0.101382667
2.279166302,0.000000000,0.000000000,-0.753534579,-0.000000000,-0.000000000,9.800000000,0.994524286,0.000000000,0.000000000,-0.104505712
2.283332968,0.000000000,0.000000000,-0.746918019,0.000000000,0.000000000,9.800000000,0.994360463,0.000000000,0.000000000,-0.106053143
2.287499634,0.000000000,0.000000000,-0.746918019,0.000000000,0.000000000,9.800000000,0.994194232,0.000000000,0.000000000,-0.107600317
2.291666300,0.000000000,0.000000000,-0.746918019,0.000000000,0.000000000,9.800000000,0.994025594,0.000000000,0.000000000,-0.109147231
2.295832966,0.000000000,0.000000000,-0.740013508,-0.000000000,-0.000000000,9.800000000,0.993856141,0.000000000,0.000000000,-0.110679585
2.304166298,0.000000000,0.000000000,-0.740013508,-0.000000000,0.000000000,9.800000000,0.993510149,0.000000000,0.000000000,-0.113743499
2.308332964,0.000000000,0.000000000,-0.732823709,-0.000000000,-0.000000000,9.800000000,0.993335337,0.000000000,0.000000000,-0.115260173
2.312499630,0.000000000,0.000000000,-0.732823709,-0.000000000,0.000000000,9.800000000,0.993158210,0.000000000,0.000000000,-0.116776579
2.316666296,0.000000000,0.000000000,-0.732823709,-0.000000000,0.000000000,9.800000000,0.992978768,0.000000000,0.000000000,-0.118292713
2.320832962,0.000000000,0.000000000,-0.725351391,0.000000000,0.000000000,9.800000000,0.992798877,0.000000000,0.000000000,-0.119793116
2.329166294,0.000000000,0.000000000,-0.725351391,0.000000000,0.000000000,9.800000000,0.992432293,0.000000000,0.000000000,-0.122793097
2.333332960,0.000000000,0.000000000,-0.717599437,-0.000000000,-0.000000000,9.800000000,0.992247608,0.000000000,0.000000000,-0.124276644
2.337499626,0.000000000,0.000000000,-0.717599437,0.000000000,-0.000000000,9.800000000,0.992060706,0.000000000,0.000000000,-0.125759913
2.341666292,0.000000000,0.000000000,-0.717599437,0.000000000,-0.000000000,9.800000000,0.991871586,0.000000000,0.000000000,-0.127242902
2.345832958,0.000000000,0.000000000,-0.709570835,-0.000000000,0.000000000,9.800000000,0.991682403,0.000000000,0.000000000,-0.128709018
2.354166290,0.000000000,0.000000000,-0.709570835,-0.000000000,-0.000000000,9.800000000,0.991297535,0.000000000,0.000000000,-0.131640405
2.358332956,0.000000000,0.000000000,-0.701268680,0.000000000,0.000000000,9.800000000,0.991104154,0.000000000,0.000000000,-0.133088526
2.362499622,0.000000000,0.000000000,-0.701268680,-0.000000000,0.000000000,9.800000000,0.990908657,0.000000000,0.000000000,-0.134536363
2.366666288,0.000000000,0.000000000,-0.701268680,0.000000000,0.000000000,9.800000000,0.990711045,0.000000000,0.000000000,-0.135983913
2.370832954,0.000000000,0.000000000,-0.692696173,0.000000000,0.000000000,9.800000000,0.990513773,0.000000000,0.000000000,-0.137413482
2.379166286,0.000000000,0.000000000,-0.692696173,0.000000000,0.000000000,9.800000000,0.990113041,0.000000000,0.000000000,-0.140271760
2.383332952,0.000000000,0.000000000,-0.683856618,0.000000000,0.000000000,9.800000000,0.989912191,0.000000000,0.000000000,-0.141682233
2.387499618,0.000000000,0.000000000,-0.683856618,0.000000000,0.000000000,9.800000000,0.989709331,0.000000000,0.000000000,-0.143092417
2.391666284,0.000000000,0.000000000,-0.683856618,0.000000000,0.000000000,9.800000000,0.989504463,0.000000000,0.000000000,-0.144502311
2.395832950,0.000000000,0.000000000,-0.674753424,0.000000000,-0.000000000,9.800000000,0.989300353,0.000000000,0.000000000,-0.145893150
2.404166282,0.000000000,0.000000000,-0.674753424,-0.000000000,-0.000000000,9.800000000,0.988886269,0.000000000,0.000000000,-0.148673960
2.408332948,0.000000000,0.000000000,-0.665390099,0.000000000,0.000000000,9.800000000,0.988679223,0.000000000,0.000000000,-0.150044640
2.412499614,0.000000000,0.000000000,-0.665390099,0.000000000,0.000000000,9.800000000,0.988470277,0.000000000,0.000000000,-0.151415032
2.416666280,0.000000000,0.000000000,-0.665390099,0.000000000,0.000000000,9.800000000,0.988259431,0.000000000,0.000000000,-0.152785132
2.420832946,0.000000000,0.000000000,-0.655770254,0.000000000,-0.000000000,9.800000000,0.988049776,0.000000000,0.000000000,-0.154135137
2.429166278,0.000000000,0.000000000,-0.655770254,0.000000000,-0.000000000,9.800000000,0.987624933,0.000000000,0.000000000,-0.156834281
2.433332944,0.000000000,0.000000000,-0.645897597,0.000000000,0.000000000,9.800000000,0.987413000,0.000000000,0.000000000,-0.158163107
2.437499610,0.000000000,0.000000000,-0.645897597,0.000000000,0.000000000,9.800000000,0.987199278,0.000000000,0.000000000,-0.159491645
2.441666276,0.000000000,0.000000000,-0.645897597,0.000000000,0.000000000,9.800000000,0.986983769,0.000000000,0.000000000,-0.160819895
2.445832942,0.000000000,0.000000000,-0.635775934,0.000000000,-0.000000000,9.800000000,0.986769893,0.000000000,0.000000000,-0.162127047
2.454166274,0.000000000,0.000000000,-0.635775934,-0.000000000,-0.000000000,9.800000000,0.986336945,0.000000000,0.000000000,-0.164740493
2.458332940,0.000000000,0.000000000,-0.625409168,0.000000000,0.000000000,9.800000000,0.986121462,0.000000000,0.000000000,-0.166025486
2.462499606,0.000000000,0.000000000,-0.625409168,0.000000000,0.000000000,9.800000000,0.985904305,0.000000000,0.000000000,-0.167310198
2.466666272,0.000000000,0.000000000,-0.625409168,0.000000000,0.000000000,9.800000000,0.985685473,0.000000000,0.000000000,-0.168594625
2.470832938,0.000000000,0.000000000,-0.614801294,0.000000000,0.000000000,9.800000000,0.985468723,0.000000000,0.000000000,-0.169856988
2.479166270,0.000000000,0.000000000,-0.614801294,0.000000000,0.000000000,9.800000000,0.985030372,0.000000000,0.000000000,-0.172380875
2.483332936,0.000000000,0.000000000,-0.603956403,0.000000000,-0.000000000,9.800000000,0.984812695,0.000000000,0.000000000,-0.173620145
2.487499602,0.000000000,0.000000000,-0.603956403,0.000000000,0.000000000,9.800000000,0.984593460,0.000000000,0.000000000,-0.174859140
2.491666268,0.000000000,0.000000000,-0.603956403,0.000000000,0.000000000,9.800000000,0.984372665,0.000000000,0.000000000,-0.176097859
2.495832934,0.000000000,0.000000000,-0.592878676,-0.000000000,-0.000000000,9.800000000,0.984154405,0.000000000,0.000000000,-0.177313586
2.504166266,0.000000000,0.000000000,-0.592878676,-0.000000000,0.000000000,9.800000000,0.983713380,0.000000000,0.000000000,-0.179744226
2.508332932,0.000000000,0.000000000,-0.581572382,-0.000000000,-0.000000000,9.800000000,0.983494878,0.000000000,0.000000000,-0.180935969
2.512499598,0.000000000,0.000000000,-0.581572382,0.000000000,0.000000000,9.800000000,0.983274932,0.000000000,0.000000000,-0.182127448
2.516666264,0.000000000,0.000000000,-0.581572382,-0.000000000,0.000000000,9.800000000,0.983053544,0.000000000,0.000000000,-0.183318658
2.520832930,0.000000000,0.000000000,-0.570041881,0.000000000,0.000000000,9.800000000,0.982835144,0.000000000,0.000000000,-0.184485990
2.529166262,0.000000000,0.000000000,-0.570041881,-0.000000000,0.000000000,9.800000000,0.982394185,0.000000000,0.000000000,-0.186819872
2.533332928,0.000000000,0.000000000,-0.558291619,-0.000000000,-0.000000000,9.800000000,0.982176229,0.000000000,0.000000000,-0.187962376
2.537499594,0.000000000,0.000000000,-0.558291619,0.000000000,-0.000000000,9.800000000,0.981956945,0.000000000,0.000000000,-0.189104625
2.541666260,0.000000000,0.000000000,-0.558291619,-0.000000000,-0.000000000,9.800000000,0.981736331,0.000000000,0.000000000,-0.190246618
2.545832926,0.000000000,0.000000000,-0.546326124,0.000000000,-0.000000000,9.800000000,0.981519161,0.000000000,0.000000000,-0.191363886
2.554166258,0.000000000,0.000000000,-0.546326124,0.000000000,-0.000000000,9.800000000,0.981081005,0.000000000,0.000000000,-0.193597678
2.558332924,0.000000000,0.000000000,-0.546326124,-0.000000000,-0.000000000,9.800000000,0.980860021,0.000000000,0.000000000,-0.194714198
2.562499590,0.000000000,0.000000000,-0.534150010,0.000000000,-0.000000000,9.800000000,0.980642733,0.000000000,0.000000000,-0.195805591
2.566666256,0.000000000,0.000000000,-0.534150010,0.000000000,-0.000000000,9.800000000,0.980424231,0.000000000,0.000000000,-0.196896741
2.570832922,0.000000000,0.000000000,-0.521767972,-0.000000000,0.000000000,9.800000000,0.980209622,0.000000000,0.000000000,-0.197962361
2.579166254,0.000000000,0.000000000,-0.521767972,-0.000000000,-0.000000000,9.800000000,0.979776929,0.000000000,0.000000000,-0.200092900
2.583332920,0.000000000,0.000000000,-0.509184782,0.000000000,-0.000000000,9.800000000,0.979564119,0.000000000,0.000000000,-0.201132136
2.587499586,0.000000000,0.000000000,-0.509184782,0.000000000,-0.000000000,9.800000000,0.979350207,0.000000000,0.000000000,-0.202171145
2.591666252,0.000000000,0.000000000,-0.509184782,-0.000000000,-0.000000000,9.800000000,0.979135193,0.000000000,0.000000000,-0.203209928
2.595832918,0.000000000,0.000000000,-0.496405292,0.000000000,-0.000000000,9.800000000,0.978924514,0.000000000,0.000000000,-0.204222418
2.604166250,0.000000000,0.000000000,-0.496405292,-0.000000000,-0.000000000,9.800000000,0.978500016,0.000000000,0.000000000,-0.206246744
2.608332916,0.000000000,0.000000000,-0.483434428,-0.000000000,-0.000000000,9.800000000,0.978291797,0.000000000,0.000000000,-0.207232140
2.612499582,0.000000000,0.000000000,-0.483434428,-0.000000000,0.000000000,9.800000000,0.978082586,0.000000000,0.000000000,-0.208217326
2.616666248,0.000000000,0.000000000,-0.483434428,-0.000000000,-0.000000000,9.800000000,0.977872383,0.000000000,0.000000000,-0.209202301
2.620832914,0.000000000,0.000000000,-0.470277190,0.000000000,0.000000000,9.800000000,0.977666949,0.000000000,0.000000000,-0.210160265
2.629166246,0.000000000,0.000000000,-0.470277190,0.000000000,0.000000000,9.800000000,0.977253266,0.000000000,0.000000000,-0.212075587
2.633332912,0.000000000,0.000000000,-0.456938653,0.000000000,-0.000000000,9.800000000,0.977050936,0.000000000,0.000000000,-0.213005792
2.637499578,0.000000000,0.000000000,-0.456938653,0.000000000,-0.000000000,9.800000000,0.976847722,0.000000000,0.000000000,-0.213935804
2.641666244,0.000000000,0.000000000,-0.456938653,0.000000000,-0.000000000,9.800000000,0.976643622,0.000000000,0.000000000,-0.214865623
2.645832910,0.000000000,0.000000000,-0.443423956,-0.000000000,0.000000000,9.800000000,0.976444712,0.000000000,0.000000000,-0.215767754
2.654166242,0.000000000,0.000000000,-0.443423956,-0.000000000,0.000000000,9.800000000,0.976044394,0.000000000,0.000000000,-0.217571464
2.658332908,0.000000000,0.000000000,-0.429738312,0.000000000,-0.000000000,9.800000000,0.975849213,0.000000000,0.000000000,-0.218445217
2.662499574,0.000000000,0.000000000,-0.429738312,-0.000000000,-0.000000000,9.800000000,0.975653251,0.000000000,0.000000000,-0.219318796
2.666666240,0.000000000,0.000000000,-0.429738312,-0.000000000,-0.000000000,9.800000000,0.975456506,0.000000000,0.000000000,-0.220192198
2.670832906,0.000000000,0.000000000,-0.415886995,-0.000000000,-0.000000000,9.800000000,0.975265359,0.000000000,0.000000000,-0.221037281
2.679166238,0.000000000,0.000000000,-0.415886995,-0.000000000,-0.000000000,9.800000000,0.974880868,0.000000000,0.000000000,-0.222726949
2.683332904,0.000000000,0.000000000,-0.401875345,0.000000000,-0.000000000,9.800000000,0.974694050,0.000000000,0.000000000,-0.223543080
2.687499570,0.000000000,0.000000000,-0.401875345,0.000000000,0.000000000,9.800000000,0.974506549,0.000000000,0.000000000,-0.224359055
2.691666236,0.000000000,0.000000000,-0.401875345,0.000000000,0.000000000,9.800000000,0.974318365,0.000000000,0.000000000,-0.225174872
2.695832902,0.000000000,0.000000000,-0.387708766,0.000000000,-0.000000000,9.800000000,0.974136168,0.000000000,0.000000000,-0.225961781
2.704166234,0.000000000,0.000000000,-0.387708766,0.000000000,-0.000000000,9.800000000,0.973769866,0.000000000,0.000000000,-0.227535157
2.708332900,0.000000000,0.000000000,-0.373392717,0.000000000,-0.000000000,9.800000000,0.973592572,0.000000000,0.000000000,-0.228292585
2.712499566,0.000000000,0.000000000,-0.373392717,0.000000000,0.000000000,9.800000000,0.973414688,0.000000000,0.000000000,-0.229049875
2.716666232,0.000000000,0.000000000,-0.373392717,0.000000000,-0.000000000,9.800000000,0.973236215,0.000000000,0.000000000,-0.229807026
2.720832898,0.000000000,0.000000000,-0.358932718,-0.000000000,0.000000000,9.800000000,0.973064099,0.000000000,0.000000000,-0.230534725
2.729166230,0.000000000,0.000000000,-0.358932718,-0.000000000,0.000000000,9.800000000,0.972718234,0.000000000,0.000000000,-0.231989735
2.733332896,0.000000000,0.000000000,-0.344334344,-0.000000000,-0.000000000,9.800000000,0.972551563,0.000000000,0.000000000,-0.232687468
2.737499562,0.000000000,0.000000000,-0.344334344,-0.000000000,-0.000000000,9.800000000,0.972384391,0.000000000,0.000000000,-0.233385080
2.741666228,0.000000000,0.000000000,-0.344334344,-0.000000000,0.000000000,9.800000000,0.972216719,0.000000000,0.000000000,-0.234082573
2.745832894,0.000000000,0.000000000,-0.329603222,0.000000000,0.000000000,9.800000000,0.972055752,0.000000000,0.000000000,-0.234750113
2.754166226,0.000000000,0.000000000,-0.329603222,0.000000000,-0.000000000,9.800000000,0.971732442,0.000000000,0.000000000,-0.236084860
2.758332892,0.000000000,0.000000000,-0.314745033,0.000000000,0.000000000,9.800000000,0.971577428,0.000000000,0.000000000,-0.236721993
2.762499558,0.000000000,0.000000000,-0.314745033,-0.000000000,-0.000000000,9.800000000,0.971421996,0.000000000,0.000000000,-0.237359023
2.766666224,0.000000000,0.000000000,-0.314745033,0.000000000,0.000000000,9.800000000,0.971266146,0.000000000,0.000000000,-0.237995952
2.770832890,0.000000000,0.000000000,-0.299765503,-0.000000000,0.000000000,9.800000000,0.971117326,0.000000000,0.000000000,-0.238602472
2.779166222,0.000000000,0.000000000,-0.299765503,-0.000000000,-0.000000000,9.800000000,0.970818548,0.000000000,0.000000000,-0.239815233
2.783332888,0.000000000,0.000000000,-0.284670407,0.000000000,0.000000000,9.800000000,0.970676152,0.000000000,0.000000000,-0.240390948
2.787499554,0.000000000,0.000000000,-0.284670407,0.000000000,0.000000000,9.800000000,0.970533414,0.000000000,0.000000000,-0.240966578
2.791666220,0.000000000,0.000000000,-0.284670407,0.000000000,-0.000000000,9.800000000,0.970390335,0.000000000,0.000000000,-0.241542123
2.795832886,0.000000000,0.000000000,-0.269465566,0.000000000,-0.000000000,9.800000000,0.970254584,0.000000000,0.000000000,-0.242086849
2.804166218,0.000000000,0.000000000,-0.269465566,-0.000000000,-0.000000000,9.800000000,0.969982164,0.000000000,0.000000000,-0.243176072
2.808332884,0.000000000,0.000000000,-0.254156841,0.000000000,0.000000000,9.800000000,0.969853268,0.000000000,0.000000000,-0.243689637
2.812499550,0.000000000,0.000000000,-0.254156841,0.000000000,0.000000000,9.800000000,0.969724100,0.000000000,0.000000000,-0.244203134
2.816666216,0.000000000,0.000000000,-0.254156841,0.000000000,0.000000000,9.800000000,0.969594660,0.000000000,0.000000000,-0.244716562
2.820832882,0.000000000,0.000000000,-0.238750134,0.000000000,0.000000000,9.800000000,0.969472819,0.000000000,0.000000000,-0.245198804
2.829166214,0.000000000,0.000000000,-0.238750134,0.000000000,0.000000000,9.800000000,0.969228417,0.000000000,0.000000000,-0.246163107
2.833332880,0.000000000,0.000000000,-0.223251384,0.000000000,-0.000000000,9.800000000,0.969113820,0.000000000,0.000000000,-0.246613875
2.837499546,0.000000000,0.000000000,-0.223251384,0.000000000,-0.000000000,9.800000000,0.968999014,0.000000000,0.000000000,-0.247064590
2.841666212,0.000000000,0.000000000,-0.223251384,0.000000000,-0.000000000,9.800000000,0.968883997,0.000000000,0.000000000,-0.247515251
2.845832878,0.000000000,0.000000000,-0.207666566,0.000000000,0.000000000,9.800000000,0.968776822,0.000000000,0.000000000,-0.247934405
2.854166210,0.000000000,0.000000000,-0.207666566,0.000000000,0.000000000,9.800000000,0.968561927,0.000000000,0.000000000,-0.248772573
2.858332876,0.000000000,0.000000000,-0.192001689,0.000000000,0.000000000,9.800000000,0.968462340,0.000000000,0.000000000,-0.249159981
2.862499542,0.000000000,0.000000000,-0.192001689,0.000000000,0.000000000,9.800000000,0.968362598,0.000000000,0.000000000,-0.249547349
2.866666208,0.000000000,0.000000000,-0.192001689,0.000000000,0.000000000,9.800000000,0.968262700,0.000000000,0.000000000,-0.249934678
2.870832874,0.000000000,0.000000000,-0.176262791,0.000000000,0.000000000,9.800000000,0.968170856,0.000000000,0.000000000,-0.250290221
2.879166206,0.000000000,0.000000000,-0.176262791,0.000000000,0.000000000,9.800000000,0.967986774,0.000000000,0.000000000,-0.251001205
2.883332872,0.000000000,0.000000000,-0.160455941,0.000000000,-0.000000000,9.800000000,0.967902815,0.000000000,0.000000000,-0.251324773
2.887499538,0.000000000,0.000000000,-0.160455941,0.000000000,-0.000000000,9.800000000,0.967818747,0.000000000,0.000000000,-0.251648312
2.891666204,0.000000000,0.000000000,-0.160455941,0.000000000,0.000000000,9.800000000,0.967734571,0.000000000,0.000000000,-0.251971824
2.895832870,0.000000000,0.000000000,-0.144587232,-0.000000000,0.000000000,9.800000000,0.967658627,0.000000000,0.000000000,-0.252263317
2.904166202,0.000000000,0.000000000,-0.144587232,0.000000000,0.000000000,9.800000000,0.967506477,0.000000000,0.000000000,-0.252846234
2.908332868,0.000000000,0.000000000,-0.128662782,0.000000000,0.000000000,9.800000000,0.967438667,0.000000000,0.000000000,-0.253105562
2.912499534,0.000000000,0.000000000,-0.128662782,0.000000000,0.000000000,9.800000000,0.967370788,0.000000000,0.000000000,-0.253364873
2.916666200,0.000000000,0.000000000,-0.128662782,0.000000000,0.000000000,9.800000000,0.967302839,0.000000000,0.000000000,-0.253624165
2.920832866,0.000000000,0.000000000,-0.112688731,0.000000000,-0.000000000,9.800000000,0.967243270,0.000000000,0.000000000,-0.253851250
2.929166198,0.000000000,0.000000000,-0.112688731,0.000000000,-0.000000000,9.800000000,0.967123971,0.000000000,0.000000000,-0.254305377
2.933332864,0.000000000,0.000000000,-0.096671235,-0.000000000,0.000000000,9.800000000,0.967072735,0.000000000,0.000000000,-0.254500149
2.937499530,0.000000000,0.000000000,-0.096671235,-0.000000000,0.000000000,9.800000000,0.967021459,0.000000000,0.000000000,-0.254694911
2.941666196,0.000000000,0.000000000,-0.096671235,-0.000000000,0.000000000,9.800000000,0.966970144,0.000000000,0.000000000,-0.254889663
2.945832862,0.000000000,0.000000000,-0.080616471,-0.000000000,-0.000000000,9.800000000,0.966927322,0.000000000,0.000000000,-0.255052063
2.954166194,0.000000000,0.000000000,-0.080616471,-0.000000000,-0.000000000,9.800000000,0.966841595,0.000000000,0.000000000,-0.255376841
2.958332860,0.000000000,0.000000000,-0.080616471,-0.000000000,-0.000000000,9.800000000,0.966798690,0.000000000,0.000000000,-0.255539219
2.962499526,0.000000000,0.000000000,-0.064530628,0.000000000,-0.000000000,9.800000000,0.966764327,0.000000000,0.000000000,-0.255669192
2.966666192,0.000000000,0.000000000,-0.064530628,-0.000000000,-0.000000000,9.800000000,0.966729947,0.000000000,0.000000000,-0.255799161
2.970832858,0.000000000,0.000000000,-0.048419907,-0.000000000,0.000000000,9.800000000,0.966704138,0.000000000,0.000000000,-0.255896678
2.979166190,0.000000000,0.000000000,-0.048419907,-0.000000000,0.000000000,9.800000000,0.966652491,0.000000000,0.000000000,-0.256091705
2.983332856,0.000000000,0.000000000,-0.032290519,0.000000000,0.000000000,9.800000000,0.966635261,0.000000000,0.000000000,-0.256156733
2.987499522,0.000000000,0.000000000,-0.032290519,0.000000000,0.000000000,9.800000000,0.966618027,0.000000000,0.000000000,-0.256221760
2.991666188,0.000000000,0.000000000,-0.032290519,0.000000000,0.000000000,9.800000000,0.966600788,0.000000000,0.000000000,-0.256286785
2.995832854,0.000000000,0.000000000,-0.016148682,0.000000000,0.000000000,9.800000000,0.966592165,0.000000000,0.000000000,-0.256319305
3.004166186,0.000000000,0.000000000,-0.016148682,0.000000000,0.000000000,9.800000000,0.966574916,0.000000000,0.000000000,-0.256384342
3.008332852,0.000000000,0.000000000,-0.000000620,0.000000000,0.000000000,9.800000000,0.966574916,0.000000000,0.000000000,-0.256384344
3.012499518,0.000000000,0.000000000,-0.000000620,0.000000000,0.000000000,9.800000000,0.966574916,0.000000000,0.000000000,-0.256384345
3.016666184,0.000000000,0.000000000,-0.000000620,0.000000000,0.000000000,9.800000000,0.966574915,0.000000000,0.000000000,-0.256384346
3.020832850,0.000000000,0.000000000,0.016147442,-0.000000000,0.000000000,9.800000000,0.966583540,0.000000000,0.000000000,-0.256351830
3.029166182,0.000000000,0.000000000,0.016147442,-0.000000000,0.000000000,9.800000000,0.966600785,0.000000000,0.000000000,-0.256286797
3.033332848,0.000000000,0.000000000,0.032289279,0.000000000,0.000000000,9.800000000,0.966618023,0.000000000,0.000000000,-0.256221773
3.037499514,0.000000000,0.000000000,0.032289279,0.000000000,0.000000000,9.800000000,0.966635257,0.000000000,0.000000000,-0.256156749
3.041666180,0.000000000,0.000000000,0.032289279,0.000000000,0.000000000,9.800000000,0.966652486,0.000000000,0.000000000,-0.256091724
3.045832846,0.000000000,0.000000000,0.048418668,-0.000000000,0.000000000,9.800000000,0.966678314,0.000000000,0.000000000,-0.255994214
3.054166178,0.000000000,0.000000000,0.048418668,-0.000000000,0.000000000,9.800000000,0.966729940,0.000000000,0.000000000,-0.255799187
3.058332844,0.000000000,0.000000000,0.048418668,0.000000000,0.000000000,9.800000000,0.966755738,0.000000000,0.000000000,-0.255701669
3.062499510,0.000000000,0.000000000,0.064529391,-0.000000000,0.000000000,9.800000000,0.966790105,0.000000000,0.000000000,-0.255571700
3.066666176,0.000000000,0.000000000,0.064529391,-0.000000000,-0.000000000,9.800000000,0.966824454,0.000000000,0.000000000,-0.255441726
3.070832842,0.000000000,0.000000000,0.080615237,0.000000000,0.000000000,9.800000000,0.966867341,0.000000000,0.000000000,-0.255279346
3.079166174,0.000000000,0.000000000,0.080615237,0.000000000,0.000000000,9.800000000,0.966953034,0.000000000,0.000000000,-0.254954564
3.083332840,0.000000000,0.000000000,0.096670003,0.000000000,-0.000000000,9.800000000,0.967004361,0.000000000,0.000000000,-0.254759818
3.087499506,0.000000000,0.000000000,0.096670003,0.000000000,-0.000000000,9.800000000,0.967055649,0.000000000,0.000000000,-0.254565063
3.091666172,0.000000000,0.000000000,0.096670003,0.000000000,-0.000000000,9.800000000,0.967106898,0.000000000,0.000000000,-0.254370296
3.095832838,0.000000000,0.000000000,0.112687502,-0.000000000,-0.000000000,9.800000000,0.967166589,0.000000000,0.000000000,-0.254143246
3.104166170,0.000000000,0.000000000,0.112687502,0.000000000,-0.000000000,9.800000000,0.967285810,0.000000000,0.000000000,-0.253689103
3.108332836,0.000000000,0.000000000,0.128661557,0.000000000,0.000000000,9.800000000,0.967353776,0.000000000,0.000000000,-0.253429818
3.112499502,0.000000000,0.000000000,0.128661557,0.000000000,-0.000000000,9.800000000,0.967421672,0.000000000,0.000000000,-0.253170515
3.116666168,0.000000000,0.000000000,0.128661557,0.000000000,0.000000000,9.800000000,0.967489498,0.000000000,0.000000000,-0.252911193
3.120832834,0.000000000,0.000000000,0.144586011,0.000000000,0.000000000,9.800000000,0.967565636,0.000000000,0.000000000,-0.252619754
3.129166166,0.000000000,0.000000000,0.144586011,0.000000000,0.000000000,9.800000000,0.967717649,0.000000000,0.000000000,-0.252036806
3.133332832,0.000000000,0.000000000,0.160454725,0.000000000,0.000000000,9.800000000,0.967801846,0.000000000,0.000000000,-0.251713303
3.137499498,0.000000000,0.000000000,0.160454725,0.000000000,0.000000000,9.800000000,0.967885935,0.000000000,0.000000000,-0.251389771
3.141666164,0.000000000,0.000000000,0.160454725,0.000000000,0.000000000,9.800000000,0.967969916,0.000000000,0.000000000,-0.251066212
3.145832830,0.000000000,0.000000000,0.176261580,0.000000000,-0.000000000,9.800000000,0.968062045,0.000000000,0.000000000,-0.250710745
3.154166162,0.000000000,0.000000000,0.176261580,0.000000000,-0.000000000,9.800000000,0.968245911,0.000000000,0.000000000,-0.249999710
3.158332828,0.000000000,0.000000000,0.192000483,-0.000000000,0.000000000,9.800000000,0.968345834,0.000000000,0.000000000,-0.249612391
3.162499494,0.000000000,0.000000000,0.192000483,-0.000000000,0.000000000,9.800000000,0.968445602,0.000000000,0.000000000,-0.249225032
3.166666160,0.000000000,0.000000000,0.192000483,-0.000000000,0.000000000,9.800000000,0.968545215,0.000000000,0.000000000,-0.248837632
3.170832826,0.000000000,0.000000000,0.207665366,-0.000000000,0.000000000,9.800000000,0.968652780,0.000000000,0.000000000,-0.248418581
3.179166158,0.000000000,0.000000000,0.207665366,0.000000000,0.000000000,9.800000000,0.968867367,0.000000000,0.000000000,-0.247580340
3.183332824,0.000000000,0.000000000,0.223250190,-0.000000000,0.000000000,9.800000000,0.968982413,0.000000000,0.000000000,-0.247129689
3.187499490,0.000000000,0.000000000,0.223250190,0.000000000,0.000000000,9.800000000,0.969097249,0.000000000,0.000000000,-0.246678984
3.191666156,0.000000000,0.000000000,0.223250190,-0.000000000,0.000000000,9.800000000,0.969211876,0.000000000,0.000000000,-0.246228226
3.195832822,0.000000000,0.000000000,0.223250190,0.000000000,0.000000000,9.800000000,0.969326293,0.000000000,0.000000000,-0.245777414
3.204166154,0.000000000,0.000000000,0.238748947,0.000000000,0.000000000,9.800000000,0.969570310,0.000000000,0.000000000,-0.244813019
3.208332820,0.000000000,0.000000000,0.254155662,0.000000000,0.000000000,9.800000000,0.969699800,0.000000000,0.000000000,-0.244299606
3.212499486,0.000000000,0.000000000,0.254155662,0.000000000,0.000000000,9.800000000,0.969829019,0.000000000,0.000000000,-0.243786125
3.216666152,0.000000000,0.000000000,0.254155662,0.000000000,0.000000000,9.800000000,0.969957965,0.000000000,0.000000000,-0.243272575
3.220832818,0.000000000,0.000000000,0.269464394,-0.000000000,-0.000000000,9.800000000,0.970094382,0.000000000,0.000000000,-0.242728018
3.229166150,0.000000000,0.000000000,0.269464394,-0.000000000,-0.000000000,9.800000000,0.970366297,0.000000000,0.000000000,-0.241638674
3.233332816,0.000000000,0.000000000,0.284669244,-0.000000000,0.000000000,9.800000000,0.970509433,0.000000000,0.000000000,-0.241063145
3.237499482,0.000000000,0.000000000,0.284669244,-0.000000000,0.000000000,9.800000000,0.970652228,0.000000000,0.000000000,-0.240487532
3.241666148,0.000000000,0.000000000,0.284669244,-0.000000000,0.000000000,9.800000000,0.970794681,0.000000000,0.000000000,-0.239911834
3.245832814,0.000000000,0.000000000,0.299764348,0.000000000,0.000000000,9.800000000,0.970944318,0.000000000,0.000000000,-0.239305517
3.254166146,0.000000000,0.000000000,0.299764348,0.000000000,0.000000000,9.800000000,0.971242458,0.000000000,0.000000000,-0.238092604
3.258332812,0.000000000,0.000000000,0.299764348,0.000000000,0.000000000,9.800000000,0.971390959,0.000000000,0.000000000,-0.237486008
3.262499478,0.000000000,0.000000000,0.314743887,-0.000000000,-0.000000000,9.800000000,0.971546474,0.000000000,0.000000000,-0.236849000
3.266666144,0.000000000,0.000000000,0.314743887,-0.000000000,-0.000000000,9.800000000,0.971701571,0.000000000,0.000000000,-0.236211890
3.270832810,0.000000000,0.000000000,0.329602086,0.000000000,0.000000000,9.800000000,0.971863542,0.000000000,0.000000000,-0.235544595
3.279166142,0.000000000,0.000000000,0.329602086,0.000000000,0.000000000,9.800000000,0.972186108,0.000000000,0.000000000,-0.234209673
3.283332808,0.000000000,0.000000000,0.344333218,0.000000000,0.000000000,9.800000000,0.972353871,0.000000000,0.000000000,-0.233512205
3.287499474,0.000000000,0.000000000,0.344333218,0.000000000,0.000000000,9.800000000,0.972521133,0.000000000,0.000000000,-0.232814616
3.291666140,0.000000000,0.000000000,0.344333218,0.000000000,0.000000000,9.800000000,0.972687895,0.000000000,0.000000000,-0.232116908
3.295832806,0.000000000,0.000000000,0.358931602,-0.000000000,-0.000000000,9.800000000,0.972861194,0.000000000,0.000000000,-0.231389492
3.304166138,0.000000000,0.000000000,0.358931602,0.000000000,0.000000000,9.800000000,0.973206160,0.000000000,0.000000000,-0.229934273
3.308332804,0.000000000,0.000000000,0.373391612,-0.000000000,-0.000000000,9.800000000,0.973384731,0.000000000,0.000000000,-0.229177147
3.312499470,0.000000000,0.000000000,0.373391612,-0.000000000,-0.000000000,9.800000000,0.973562713,0.000000000,0.000000000,-0.228419883
3.316666136,0.000000000,0.000000000,0.373391612,0.000000000,-0.000000000,9.800000000,0.973740106,0.000000000,0.000000000,-0.227662481
3.320832802,0.000000000,0.000000000,0.387707672,0.000000000,-0.000000000,9.800000000,0.973923677,0.000000000,0.000000000,-0.226875893
3.329166134,0.000000000,0.000000000,0.387707672,0.000000000,0.000000000,9.800000000,0.974288913,0.000000000,0.000000000,-0.225302274
3.333332800,0.000000000,0.000000000,0.401874263,-0.000000000,-0.000000000,9.800000000,0.974477203,0.000000000,0.000000000,-0.224486484
3.337499466,0.000000000,0.000000000,0.401874263,0.000000000,-0.000000000,9.800000000,0.974664810,0.000000000,0.000000000,-0.223670536
3.341666132,0.000000000,0.000000000,0.401874263,-0.000000000,-0.000000000,9.800000000,0.974851734,0.000000000,0.000000000,-0.222854431
3.345832798,0.000000000,0.000000000,0.415885925,0.000000000,0.000000000,9.800000000,0.975044455,0.000000000,0.000000000,-0.222009708
3.354166130,0.000000000,0.000000000,0.415885925,0.000000000,0.000000000,9.800000000,0.975427702,0.000000000,0.000000000,-0.220319762
3.358332796,0.000000000,0.000000000,0.429737254,0.000000000,0.000000000,9.800000000,0.975624560,0.000000000,0.000000000,-0.219446387
3.362499462,0.000000000,0.000000000,0.429737254,0.000000000,0.000000000,9.800000000,0.975820637,0.000000000,0.000000000,-0.218572837
3.366666128,0.000000000,0.000000000,0.429737254,0.000000000,0.000000000,9.800000000,0.976015931,0.000000000,0.000000000,-0.217699111
3.370832794,0.000000000,0.000000000,0.443422912,-0.000000000,-0.000000000,9.800000000,0.976216624,0.000000000,0.000000000,-0.216797377
3.379166126,0.000000000,0.000000000,0.443422912,0.000000000,-0.000000000,9.800000000,0.976615512,0.000000000,0.000000000,-0.214993355
3.383332792,0.000000000,0.000000000,0.456937621,-0.000000000,0.000000000,9.800000000,0.976819733,0.000000000,0.000000000,-0.214063565
3.387499458,0.000000000,0.000000000,0.456937621,-0.000000000,0.000000000,9.800000000,0.977023068,0.000000000,0.000000000,-0.213133582
3.391666124,0.000000000,0.000000000,0.456937621,-0.000000000,-0.000000000,9.800000000,0.977225519,0.000000000,0.000000000,-0.212203405
3.395832790,0.000000000,0.000000000,0.470276173,0.000000000,0.000000000,9.800000000,0.977432954,0.000000000,0.000000000,-0.211245875
3.404166122,0.000000000,0.000000000,0.470276173,0.000000000,0.000000000,9.800000000,0.977845011,0.000000000,0.000000000,-0.209330206
3.408332788,0.000000000,0.000000000,0.483433424,0.000000000,-0.000000000,9.800000000,0.978055342,0.000000000,0.000000000,-0.208345261
3.412499454,0.000000000,0.000000000,0.483433424,0.000000000,0.000000000,9.800000000,0.978264682,0.000000000,0.000000000,-0.207360104
3.416666120,0.000000000,0.000000000,0.483433424,0.000000000,0.000000000,9.800000000,0.978473029,0.000000000,0.000000000,-0.206374737
3.420832786,0.000000000,0.000000000,0.496404303,0.000000000,0.000000000,9.800000000,0.978685933,0.000000000,0.000000000,-0.205362714
3.429166118,0.000000000,0.000000000,0.496404303,0.000000000,0.000000000,9.800000000,0.979108601,0.000000000,0.000000000,-0.203338011
3.433332784,0.000000000,0.000000000,0.509183808,-0.000000000,0.000000000,9.800000000,0.979323751,0.000000000,0.000000000,-0.202299258
3.437499450,0.000000000,0.000000000,0.509183808,-0.000000000,0.000000000,9.800000000,0.979537799,0.000000000,0.000000000,-0.201260279
3.441666116,0.000000000,0.000000000,0.509183808,-0.000000000,0.000000000,9.800000000,0.979750745,0.000000000,0.000000000,-0.200221073
3.445832782,0.000000000,0.000000000,0.521767013,0.000000000,0.000000000,9.800000000,0.979967809,0.000000000,0.000000000,-0.199155951
3.454166114,0.000000000,0.000000000,0.521767013,0.000000000,0.000000000,9.800000000,0.980398464,0.000000000,0.000000000,-0.197025004
3.458332780,0.000000000,0.000000000,0.534149067,0.000000000,0.000000000,9.800000000,0.980617108,0.000000000,0.000000000,-0.195933885
3.462499446,0.000000000,0.000000000,0.534149067,0.000000000,0.000000000,9.800000000,0.980834538,0.000000000,0.000000000,-0.194842523
3.466666112,0.000000000,0.000000000,0.534149067,0.000000000,0.000000000,9.800000000,0.981050754,0.000000000,0.000000000,-0.193750919
3.470832778,0.000000000,0.000000000,0.546325197,-0.000000000,0.000000000,9.800000000,0.981270641,0.000000000,0.000000000,-0.192634184
3.479166110,0.000000000,0.000000000,0.546325197,-0.000000000,0.000000000,9.800000000,0.981706602,0.000000000,0.000000000,-0.190399967
3.483332776,0.000000000,0.000000000,0.558290708,-0.000000000,0.000000000,9.800000000,0.981927393,0.000000000,0.000000000,-0.189258010
3.487499442,0.000000000,0.000000000,0.558290708,-0.000000000,0.000000000,9.800000000,0.982146856,0.000000000,0.000000000,-0.188115798
3.491666108,0.000000000,0.000000000,0.558290708,-0.000000000,-0.000000000,9.800000000,0.982364990,0.000000000,0.000000000,-0.186973330
3.495832774,0.000000000,0.000000000,0.570040987,0.000000000,-0.000000000,9.800000000,0.982586344,0.000000000,0.000000000,-0.185806557
3.504166106,0.000000000,0.000000000,0.570040987,0.000000000,0.000000000,9.800000000,0.983024894,0.000000000,0.000000000,-0.183472225
3.508332772,0.000000000,0.000000000,0.581571505,0.000000000,0.000000000,9.800000000,0.983246469,0.000000000,0.000000000,-0.182281050
3.512499438,0.000000000,0.000000000,0.581571505,0.000000000,0.000000000,9.800000000,0.983466600,0.000000000,0.000000000,-0.181089608
3.516666104,0.000000000,0.000000000,0.581571505,0.000000000,0.000000000,9.800000000,0.983685288,0.000000000,0.000000000,-0.179897901
3.520832770,0.000000000,0.000000000,0.592877816,-0.000000000,-0.000000000,9.800000000,0.983906740,0.000000000,0.000000000,-0.178682753
3.529166102,0.000000000,0.000000000,0.592877816,0.000000000,0.000000000,9.800000000,0.984345142,0.000000000,0.000000000,-0.176251642
3.533332768,0.000000000,0.000000000,0.603955561,0.000000000,0.000000000,9.800000000,0.984566130,0.000000000,0.000000000,-0.175012960
3.537499434,0.000000000,0.000000000,0.603955561,0.000000000,0.000000000,9.800000000,0.984785559,0.000000000,0.000000000,-0.173774001
3.541666100,0.000000000,0.000000000,0.603955561,-0.000000000,-0.000000000,9.800000000,0.985003429,0.000000000,0.000000000,-0.172534766
3.545832766,0.000000000,0.000000000,0.614800470,0.000000000,0.000000000,9.800000000,0.985223609,0.000000000,0.000000000,-0.171272999
3.554166098,0.000000000,0.000000000,0.614800470,0.000000000,0.000000000,9.800000000,0.985659121,0.000000000,0.000000000,-0.168748624
3.558332764,0.000000000,0.000000000,0.625408362,-0.000000000,-0.000000000,9.800000000,0.985878152,0.000000000,0.000000000,-0.167464232
3.562499430,0.000000000,0.000000000,0.625408362,0.000000000,-0.000000000,9.800000000,0.986095510,0.000000000,0.000000000,-0.166179557
3.566666096,0.000000000,0.000000000,0.625408362,-0.000000000,-0.000000000,9.800000000,0.986311194,0.000000000,0.000000000,-0.164894599
3.570832762,0.000000000,0.000000000,0.635775147,-0.000000000,0.000000000,9.800000000,0.986528737,0.000000000,0.000000000,-0.163588054
3.579166094,0.000000000,0.000000000,0.635775147,-0.000000000,-0.000000000,9.800000000,0.986958630,0.000000000,0.000000000,-0.160974107
3.583332760,0.000000000,0.000000000,0.645896829,0.000000000,0.000000000,9.800000000,0.987174346,0.000000000,0.000000000,-0.159645892
3.587499426,0.000000000,0.000000000,0.645896829,0.000000000,-0.000000000,9.800000000,0.987388274,0.000000000,0.000000000,-0.158317388
3.591666092,0.000000000,0.000000000,0.645896829,0.000000000,-0.000000000,9.800000000,0.987600415,0.000000000,0.000000000,-0.156988598
3.595832758,0.000000000,0.000000000,0.655769505,0.000000000,0.000000000,9.800000000,0.987813969,0.000000000,0.000000000,-0.155639205
3.604166090,0.000000000,0.000000000,0.655769505,0.000000000,0.000000000,9.800000000,0.988235546,0.000000000,0.000000000,-0.152939552
3.608332756,0.000000000,0.000000000,0.665389370,-0.000000000,0.000000000,9.800000000,0.988446605,0.000000000,0.000000000,-0.151569486
3.612499422,0.000000000,0.000000000,0.665389370,0.000000000,0.000000000,9.800000000,0.988655765,0.000000000,0.000000000,-0.150199129
3.616666088,0.000000000,0.000000000,0.665389370,-0.000000000,-0.000000000,9.800000000,0.988863025,0.000000000,0.000000000,-0.148828483
3.620832754,0.000000000,0.000000000,0.674752714,-0.000000000,-0.000000000,9.800000000,0.989071261,0.000000000,0.000000000,-0.147438258
3.629166086,0.000000000,0.000000000,0.674752714,-0.000000000,-0.000000000,9.800000000,0.989481870,0.000000000,0.000000000,-0.144656935
3.633332752,0.000000000,0.000000000,0.683855929,0.000000000,0.000000000,9.800000000,0.989686958,0.000000000,0.000000000,-0.143247074
3.637499418,0.000000000,0.000000000,0.683855929,-0.000000000,0.000000000,9.800000000,0.989890038,0.000000000,0.000000000,-0.141836923
3.641666084,0.000000000,0.000000000,0.683855929,0.000000000,0.000000000,9.800000000,0.990091108,0.000000000,0.000000000,-0.140426483
3.645832750,0.000000000,0.000000000,0.692695504,-0.000000000,-0.000000000,9.800000000,0.990292729,0.000000000,0.000000000,-0.138997522
3.654166082,0.000000000,0.000000000,0.692695504,0.000000000,-0.000000000,9.800000000,0.990689783,0.000000000,0.000000000,-0.136138734
3.658332748,0.000000000,0.000000000,0.701268032,-0.000000000,-0.000000000,9.800000000,0.990887620,0.000000000,0.000000000,-0.134691216
3.662499414,0.000000000,0.000000000,0.701268032,-0.000000000,-0.000000000,9.800000000,0.991083343,0.000000000,0.000000000,-0.133243411
3.666666080,0.000000000,0.000000000,0.701268032,-0.000000000,0.000000000,9.800000000,0.991276951,0.000000000,0.000000000,-0.131795321
3.670832746,0.000000000,0.000000000,0.709570208,0.000000000,-0.000000000,9.800000000,0.991470697,0.000000000,0.000000000,-0.130329802
3.679166078,0.000000000,0.000000000,0.709570208,0.000000000,-0.000000000,9.800000000,0.991851689,0.000000000,0.000000000,-0.127397912
3.683332744,0.000000000,0.000000000,0.717598831,0.000000000,-0.000000000,9.800000000,0.992041040,0.000000000,0.000000000,-0.125914954
3.687499410,0.000000000,0.000000000,0.717598831,0.000000000,-0.000000000,9.800000000,0.992228173,0.000000000,0.000000000,-0.124431715
3.691666076,0.000000000,0.000000000,0.717598831,0.000000000,-0.000000000,9.800000000,0.992413090,0.000000000,0.000000000,-0.122948199
3.695832742,0.000000000,0.000000000,0.725350807,0.000000000,0.000000000,9.800000000,0.992597749,0.000000000,0.000000000,-0.121448376
3.704166074,0.000000000,0.000000000,0.725350807,-0.000000000,0.000000000,9.800000000,0.992960268,0.000000000,0.000000000,-0.118447903
3.708332740,0.000000000,0.000000000,0.732823145,0.000000000,0.000000000,9.800000000,0.993139947,0.000000000,0.000000000,-0.116931799
3.712499406,0.000000000,0.000000000,0.732823145,0.000000000,0.000000000,9.800000000,0.993317311,0.000000000,0.000000000,-0.115415422
3.716666072,0.000000000,0.000000000,0.732823145,0.000000000,0.000000000,9.800000000,0.993492360,0.000000000,0.000000000,-0.113898776
3.720832738,0.000000000,0.000000000,0.732823145,0.000000000,0.000000000,9.800000000,0.993665093,0.000000000,0.000000000,-0.112381865
3.729166070,0.000000000,0.000000000,0.740012967,0.000000000,0.000000000,9.800000000,0.994006885,0.000000000,0.000000000,-0.109317481
3.733332736,0.000000000,0.000000000,0.746917500,0.000000000,0.000000000,9.800000000,0.994175788,0.000000000,0.000000000,-0.107770597
3.737499402,0.000000000,0.000000000,0.746917500,0.000000000,0.000000000,9.800000000,0.994342284,0.000000000,0.000000000,-0.106223453
3.741666068,0.000000000,0.000000000,0.746917500,0.000000000,0.000000000,9.800000000,0.994506372,0.000000000,0.000000000,-0.104676051
3.745832734,0.000000000,0.000000000,0.753534082,-0.000000000,-0.000000000,9.800000000,0.994669474,0.000000000,0.000000000,-0.103114684
3.754166066,0.000000000,0.000000000,0.753534082,-0.000000000,0.000000000,9.800000000,0.994988322,0.000000000,0.000000000,-0.099991193
3.758332732,0.000000000,0.000000000,0.759860162,0.000000000,-0.000000000,9.800000000,0.995145366,0.000000000,0.000000000,-0.098415960
3.762499398,0.000000000,0.000000000,0.759860162,0.000000000,0.000000000,9.800000000,0.995299915,0.000000000,0.000000000,-0.096840481
3.766666064,0.000000000,0.000000000,0.759860162,0.000000000,0.000000000,9.800000000,0.995451971,0.000000000,0.000000000,-0.095264759
3.770832730,0.000000000,0.000000000,0.765893301,0.000000000,-0.000000000,9.800000000,0.995602709,0.000000000,0.000000000,-0.093676284
3.779166062,0.000000000,0.000000000,0.765893301,0.000000000,-0.000000000,9.800000000,0.995896581,0.000000000,0.000000000,-0.090498624
3.783332728,0.000000000,0.000000000,0.765893301,0.000000000,0.000000000,9.800000000,0.996039713,0.000000000,0.000000000,-0.088909446
3.787499394,0.000000000,0.000000000,0.771631175,0.000000000,0.000000000,9.800000000,0.996181354,0.000000000,0.000000000,-0.087308133
3.791666060,0.000000000,0.000000000,0.771631175,-0.000000000,0.000000000,9.800000000,0.996320420,0.000000000,0.000000000,-0.085706595
3.795832726,0.000000000,0.000000000,0.777071570,0.000000000,-0.000000000,9.800000000,0.996457865,0.000000000,0.000000000,-0.084093542
3.804166058,0.000000000,0.000000000,0.777071570,0.000000000,0.000000000,9.800000000,0.996724919,0.000000000,0.000000000,-0.080866777
3.808332724,0.000000000,0.000000000,0.782212389,0.000000000,0.000000000,9.800000000,0.996855377,0.000000000,0.000000000,-0.079242399
3.812499390,0.000000000,0.000000000,0.782212389,0.000000000,-0.000000000,9.800000000,0.996983187,0.000000000,0.000000000,-0.077617810
3.816666056,0.000000000,0.000000000,0.782212389,0.000000000,0.000000000,9.800000000,0.997108350,0.000000000,0.000000000,-0.075993015
3.820832722,0.000000000,0.000000000,0.787051650,0.000000000,0.000000000,9.800000000,0.997231615,0.000000000,0.000000000,-0.074357964
3.829166054,0.000000000,0.000000000,0.787051650,0.000000000,0.000000000,9.800000000,0.997470100,0.000000000,0.000000000,-0.071087268
3.833332720,0.000000000,0.000000000,0.791587489,0.000000000,-0.000000000,9.800000000,0.997585976,0.000000000,0.000000000,-0.069442204
3.837499386,0.000000000,0.000000000,0.791587489,-0.000000000,-0.000000000,9.800000000,0.997699140,0.000000000,0.000000000,-0.067796951
3.841666052,0.000000000,0.000000000,0.791587489,0.000000000,-0.000000000,9.800000000,0.997809590,0.000000000,0.000000000,-0.066151513
3.845832718,0.000000000,0.000000000,0.795818155,-0.000000000,-0.000000000,9.800000000,0.997917894,0.000000000,0.000000000,-0.064497101
3.854166050,0.000000000,0.000000000,0.795818155,-0.000000000,-0.000000000,9.800000000,0.998126274,0.000000000,0.000000000,-0.061187748
3.858332716,0.000000000,0.000000000,0.799742018,-0.000000000,-0.000000000,9.800000000,0.998226836,0.000000000,0.000000000,-0.059524656
3.862499382,0.000000000,0.000000000,0.799742018,-0.000000000,-0.000000000,9.800000000,0.998324626,0.000000000,0.000000000,-0.057861400
3.866666048,0.000000000,0.000000000,0.799742018,0.000000000,0.000000000,9.800000000,0.998419645,0.000000000,0.000000000,-0.056197983
3.870832714,0.000000000,0.000000000,0.803357566,0.000000000,0.000000000,9.800000000,0.998512303,0.000000000,0.000000000,-0.054526889
3.879166046,0.000000000,0.000000000,0.803357566,0.000000000,0.000000000,9.800000000,0.998689227,0.000000000,0.000000000,-0.051184247
3.883332712,0.000000000,0.000000000,0.803357566,0.000000000,0.000000000,9.800000000,0.998773494,0.000000000,0.000000000,-0.049512708
3.887499378,0.000000000,0.000000000,0.806663404,-0.000000000,-0.000000000,9.800000000,0.998855292,0.000000000,0.000000000,-0.047834152
3.891666044,0.000000000,0.000000000,0.806663404,0.000000000,0.000000000,9.800000000,0.998934269,0.000000000,0.000000000,-0.046155460
3.895832710,0.000000000,0.000000000,0.809658258,0.000000000,0.000000000,9.800000000,0.999010702,0.000000000,0.000000000,-0.044470405
3.904166042,0.000000000,0.000000000,0.809658258,0.000000000,0.000000000,9.800000000,0.999155041,0.000000000,0.000000000,-0.041099920
3.908332708,0.000000000,0.000000000,0.812340973,0.000000000,0.000000000,9.800000000,0.999223167,0.000000000,0.000000000,-0.039408916
3.912499374,0.000000000,0.000000000,0.812340973,0.000000000,0.000000000,9.800000000,0.999288431,0.000000000,0.000000000,-0.037717798
3.916666040,0.000000000,0.000000000,0.812340973,0.000000000,0.000000000,9.800000000,0.999350832,0.000000000,0.000000000,-0.036026572
3.920832706,0.000000000,0.000000000,0.814710516,0.000000000,-0.000000000,9.800000000,0.999410541,0.000000000,0.000000000,-0.034330310
3.929166038,0.000000000,0.000000000,0.814710516,-0.000000000,-0.000000000,9.800000000,0.999521321,0.000000000,0.000000000,-0.030937493
3.933332704,0.000000000,0.000000000,0.816765972,-0.000000000,-0.000000000,9.800000000,0.999572517,0.000000000,0.000000000,-0.029236668
3.937499370,0.000000000,0.000000000,0.816765972,-0.000000000,-0.000000000,9.800000000,0.999620819,0.000000000,0.000000000,-0.027535758
3.941666036,0.000000000,0.000000000,0.816765972,-0.000000000,0.000000000,9.800000000,0.999666227,0.000000000,0.000000000,-0.025834769
3.945832702,0.000000000,0.000000000,0.818506550,-0.000000000,0.000000000,9.800000000,0.999708827,0.000000000,0.000000000,-0.024130080
3.954166034,0.000000000,0.000000000,0.818506550,-0.000000000,0.000000000,9.800000000,0.999785307,0.000000000,0.000000000,-0.020720496
3.958332700,0.000000000,0.000000000,0.819931578,0.000000000,-0.000000000,9.800000000,0.999819243,0.000000000,0.000000000,-0.019012642
3.962499366,0.000000000,0.000000000,0.819931578,0.000000000,-0.000000000,9.800000000,0.999850262,0.000000000,0.000000000,-0.017304734
3.966666032,0.000000000,0.000000000,0.819931578,0.000000000,0.000000000,9.800000000,0.999878363,0.000000000,0.000000000,-0.015596775
3.970832698,0.000000000,0.000000000,0.821040507,-0.000000000,0.000000000,9.800000000,0.999903578,0.000000000,0.000000000,-0.013886460
3.979166030,0.000000000,0.000000000,0.821040507,0.000000000,0.000000000,9.800000000,0.999945233,0.000000000,0.000000000,-0.010465714
3.983332696,0.000000000,0.000000000,0.821040507,-0.000000000,-0.000000000,9.800000000,0.999961672,0.000000000,0.000000000,-0.008755292
3.987499362,0.000000000,0.000000000,0.821832909,0.000000000,-0.000000000,9.800000000,0.999975196,0.000000000,0.000000000,-0.007043194
3.991666028,0.000000000,0.000000000,0.821832909,-0.000000000,-0.000000000,9.800000000,0.999985790,0.000000000,0.000000000,-0.005331075
3.995832694,0.000000000,0.000000000,0.822308479,0.000000000,0.000000000,9.800000000,0.999993455,0.000000000,0.000000000,-0.003617950
4.004166026,0.000000000,0.000000000,0.822308479,-0.000000000,0.000000000,9.800000000,0.999999982,0.000000000,0.000000000,-0.000191673
4.008332692,0.000000000,0.000000000,0.822467033,-0.000000000,0.000000000,9.800000000,0.999998842,0.000000000,0.000000000,0.001521799
4.012499358,0.000000000,0.000000000,0.822467033,-0.000000000,0.000000000,9.800000000,0.999994767,0.000000000,0.000000000,0.003235266
4.016666024,0.000000000,0.000000000,0.822467033,-0.000000000,0.000000000,9.800000000,0.999987755,0.000000000,0.000000000,0.004948725
4.020832690,0.000000000,0.000000000,0.822308511,0.000000000,-0.000000000,9.800000000,0.999977810,0.000000000,0.000000000,0.006661838
4.029166022,0.000000000,0.000000000,0.822308511,0.000000000,-0.000000000,9.800000000,0.999949115,0.000000000,0.000000000,0.010088001
4.033332688,0.000000000,0.000000000,0.821832974,0.000000000,0.000000000,9.800000000,0.999930377,0.000000000,0.000000000,0.011800050
4.037499354,0.000000000,0.000000000,0.821832974,0.000000000,0.000000000,9.800000000,0.999908708,0.000000000,0.000000000,0.013512064
4.041666020,0.000000000,0.000000000,0.821832974,-0.000000000,0.000000000,9.800000000,0.999884108,0.000000000,0.000000000,0.015224039
4.045832686,0.000000000,0.000000000,0.821040604,-0.000000000,-0.000000000,9.800000000,0.999856604,0.000000000,0.000000000,0.016934319
4.054166018,0.000000000,0.000000000,0.821040604,-0.000000000,-0.000000000,9.800000000,0.999792821,0.000000000,0.000000000,0.020354725
4.058332684,0.000000000,0.000000000,0.819931708,0.000000000,0.000000000,9.800000000,0.999756593,0.000000000,0.000000000,0.022062531
4.062499350,0.000000000,0.000000000,0.819931708,-0.000000000,-0.000000000,9.800000000,0.999717447,0.000000000,0.000000000,0.023770273
4.066666016,0.000000000,0.000000000,0.819931708,-0.000000000,0.000000000,9.800000000,0.999675384,0.000000000,0.000000000,0.025477945
4.070832682,0.000000000,0.000000000,0.818506712,0.000000000,0.000000000,9.800000000,0.999630486,0.000000000,0.000000000,0.027182576
4.079166014,0.000000000,0.000000000,0.818506712,-0.000000000,-0.000000000,9.800000000,0.999531968,0.000000000,0.000000000,0.030591595
4.083332680,0.000000000,0.000000000,0.818506712,-0.000000000,0.000000000,9.800000000,0.999478349,0.000000000,0.000000000,0.032295974
4.087499346,0.000000000,0.000000000,0.816766167,0.000000000,0.000000000,9.800000000,0.999421947,0.000000000,0.000000000,0.033996635
4.091666012,0.000000000,0.000000000,0.816766167,0.000000000,0.000000000,9.800000000,0.999362652,0.000000000,0.000000000,0.035697197
4.095832678,0.000000000,0.000000000,0.814710743,-0.000000000,-0.000000000,9.800000000,0.999300623,0.000000000,0.000000000,0.037393377
4.104166010,0.000000000,0.000000000,0.814710743,-0.000000000,-0.000000000,9.800000000,0.999167929,0.000000000,0.000000000,0.040785408
4.108332676,0.000000000,0.000000000,0.812341232,-0.000000000,-0.000000000,9.800000000,0.999097474,0.000000000,0.000000000,0.042476318
4.112499342,0.000000000,0.000000000,0.812341232,0.000000000,-0.000000000,9.800000000,0.999024157,0.000000000,0.000000000,0.044167106
4.116666008,0.000000000,0.000000000,0.812341232,0.000000000,-0.000000000,9.800000000,0.998947979,0.000000000,0.000000000,0.045857768
4.120832674,0.000000000,0.000000000,0.809658549,0.000000000,-0.000000000,9.800000000,0.998869206,0.000000000,0.000000000,0.047542716
4.129166006,0.000000000,0.000000000,0.809658549,-0.000000000,-0.000000000,9.800000000,0.998703133,0.000000000,0.000000000,0.050912201
4.133332672,0.000000000,0.000000000,0.806663726,0.000000000,-0.000000000,9.800000000,0.998616162,0.000000000,0.000000000,0.052590498
4.137499338,0.000000000,0.000000000,0.806663726,0.000000000,0.000000000,9.800000000,0.998526371,0.000000000,0.000000000,0.054268646
4.141666004,0.000000000,0.000000000,0.806663726,0.000000000,0.000000000,9.800000000,0.998433760,0.000000000,0.000000000,0.055946642
4.145832670,0.000000000,0.000000000,0.803357920,0.000000000,0.000000000,9.800000000,0.998338726,0.000000000,0.000000000,0.057617603
4.154166002,0.000000000,0.000000000,0.803357920,0.000000000,0.000000000,9.800000000,0.998140269,0.000000000,0.000000000,0.060959037
4.158332668,0.000000000,0.000000000,0.799742404,0.000000000,0.000000000,9.800000000,0.998037318,0.000000000,0.000000000,0.062621983
4.162499334,0.000000000,0.000000000,0.799742404,0.000000000,0.000000000,9.800000000,0.997931596,0.000000000,0.000000000,0.064284755
4.166666000,0.000000000,0.000000000,0.799742404,0.000000000,0.000000000,9.800000000,0.997823104,0.000000000,0.000000000,0.065947349
4.170832666,0.000000000,0.000000000,0.795818572,0.000000000,0.000000000,9.800000000,0.997712395,0.000000000,0.000000000,0.067601603
4.179165998,0.000000000,0.000000000,0.795818572,0.000000000,0.000000000,9.800000000,0.997482750,0.000000000,0.000000000,0.070909550
4.183332664,0.000000000,0.000000000,0.791587937,0.000000000,-0.000000000,9.800000000,0.997364453,0.000000000,0.000000000,0.072554443
4.187499330,0.000000000,0.000000000,0.791587937,0.000000000,-0.000000000,9.800000000,0.997243445,0.000000000,0.000000000,0.074199138
4.191665996,0.000000000,0.000000000,0.791587937,0.000000000,-0.000000000,9.800000000,0.997119724,0.000000000,0.000000000,0.075843632
4.195832662,0.000000000,0.000000000,0.787052130,0.000000000,0.000000000,9.800000000,0.996994023,0.000000000,0.000000000,0.077478498
4.204165994,0.000000000,0.000000000,0.787052130,0.000000000,-0.000000000,9.800000000,0.996734581,0.000000000,0.000000000,0.080747601
4.208332660,0.000000000,0.000000000,0.787052130,0.000000000,0.000000000,9.800000000,0.996600840,0.000000000,0.000000000,0.082381830
4.212499326,0.000000000,0.000000000,0.782212900,-0.000000000,0.000000000,9.800000000,0.996465266,0.000000000,0.000000000,0.084005790
4.216665992,0.000000000,0.000000000,0.782212900,0.000000000,0.000000000,9.800000000,0.996327047,0.000000000,0.000000000,0.085629528
4.220832658,0.000000000,0.000000000,0.777072111,0.000000000,0.000000000,9.800000000,0.996187116,0.000000000,0.000000000,0.087242369
4.229165990,0.000000000,0.000000000,0.777072111,-0.000000000,0.000000000,9.800000000,0.995899421,0.000000000,0.000000000,0.090467360
4.233332656,0.000000000,0.000000000,0.771631747,0.000000000,-0.000000000,9.800000000,0.995752702,0.000000000,0.000000000,0.092068217
4.237499322,0.000000000,0.000000000,0.771631747,-0.000000000,-0.000000000,9.800000000,0.995603410,0.000000000,0.000000000,0.093668835
4.241665988,0.000000000,0.000000000,0.771631747,0.000000000,0.000000000,9.800000000,0.995451544,0.000000000,0.000000000,0.095269211
4.245832654,0.000000000,0.000000000,0.771631747,0.000000000,-0.000000000,9.800000000,0.995297107,0.000000000,0.000000000,0.096869341
4.254165986,0.000000000,0.000000000,0.765893904,-0.000000000,0.000000000,9.800000000,0.994982907,0.000000000,0.000000000,0.100045059
4.258332652,0.000000000,0.000000000,0.759860795,0.000000000,0.000000000,9.800000000,0.994823285,0.000000000,0.000000000,0.101620034
4.262499318,0.000000000,0.000000000,0.759860795,-0.000000000,0.000000000,9.800000000,0.994661170,0.000000000,0.000000000,0.103194754
4.266665984,0.000000000,0.000000000,0.759860795,0.000000000,0.000000000,9.800000000,0.994496562,0.000000000,0.000000000,0.104769215
4.270832650,0.000000000,0.000000000,0.753534744,0.000000000,0.000000000,9.800000000,0.994330863,0.000000000,0.000000000,0.106330310
4.279165982,0.000000000,0.000000000,0.753534744,0.000000000,0.000000000,9.800000000,0.993992114,0.000000000,0.000000000,0.109451709
4.283332648,0.000000000,0.000000000,0.746918192,-0.000000000,0.000000000,9.800000000,0.993820596,0.000000000,0.000000000,0.110998306
4.287499314,0.000000000,0.000000000,0.746918192,0.000000000,0.000000000,9.800000000,0.993646670,0.000000000,0.000000000,0.112544635
4.291665980,0.000000000,0.000000000,0.746918192,0.000000000,0.000000000,9.800000000,0.993470339,0.000000000,0.000000000,0.114090691
4.295832646,0.000000000,0.000000000,0.740013689,0.000000000,-0.000000000,9.800000000,0.993293265,0.000000000,0.000000000,0.115622183
4.304165978,0.000000000,0.000000000,0.740013689,-0.000000000,-0.000000000,9.800000000,0.992932036,0.000000000,0.000000000,0.118684339
4.308332644,0.000000000,0.000000000,0.732823896,0.000000000,-0.000000000,9.800000000,0.992749681,0.000000000,0.000000000,0.120200125
4.312499310,0.000000000,0.000000000,0.732823896,-0.000000000,-0.000000000,9.800000000,0.992565013,0.000000000,0.000000000,0.121715632
4.316665976,0.000000000,0.000000000,0.732823896,0.000000000,-0.000000000,9.800000000,0.992378031,0.000000000,0.000000000,0.123230854
4.320832642,0.000000000,0.000000000,0.725351586,-0.000000000,-0.000000000,9.800000000,0.992190678,0.000000000,0.000000000,0.124730344
4.329165974,0.000000000,0.000000000,0.725351586,0.000000000,0.000000000,9.800000000,0.991809175,0.000000000,0.000000000,0.127728465
4.333332640,0.000000000,0.000000000,0.717599639,0.000000000,0.000000000,9.800000000,0.991617113,0.000000000,0.000000000,0.129211076
4.337499306,0.000000000,0.000000000,0.717599639,0.000000000,0.000000000,9.800000000,0.991422834,0.000000000,0.000000000,0.130693397
4.341665972,0.000000000,0.000000000,0.717599639,-0.000000000,0.000000000,9.800000000,0.991226340,0.000000000,0.000000000,0.132175427
4.345832638,0.000000000,0.000000000,0.717599639,0.000000000,0.000000000,9.800000000,0.991027630,0.000000000,0.000000000,0.133657161
4.354165970,0.000000000,0.000000000,0.709571044,-0.000000000,0.000000000,9.800000000,0.990628136,0.000000000,0.000000000,0.136586591
4.358332636,0.000000000,0.000000000,0.701268896,0.000000000,0.000000000,9.800000000,0.990427529,0.000000000,0.000000000,0.138033729
4.362499302,0.000000000,0.000000000,0.701268896,0.000000000,-0.000000000,9.800000000,0.990224808,0.000000000,0.000000000,0.139480573
4.366665968,0.000000000,0.000000000,0.701268896,0.000000000,-0.000000000,9.800000000,0.990019973,0.000000000,0.000000000,0.140927119
4.370832634,0.000000000,0.000000000,0.692696396,0.000000000,-0.000000000,9.800000000,0.989815568,0.000000000,0.000000000,0.142355687
4.379165966,0.000000000,0.000000000,0.692696396,0.000000000,-0.000000000,9.800000000,0.989400574,0.000000000,0.000000000,0.145211930
4.383332632,0.000000000,0.000000000,0.683856848,0.000000000,0.000000000,9.800000000,0.989192686,0.000000000,0.000000000,0.146621382
4.387499298,0.000000000,0.000000000,0.683856848,0.000000000,0.000000000,9.800000000,0.988982791,0.000000000,0.000000000,0.148030537
4.391665964,0.000000000,0.000000000,0.683856848,0.000000000,0.000000000,9.800000000,0.988770888,0.000000000,0.000000000,0.149439392
4.395832630,0.000000000,0.000000000,0.674753660,-0.000000000,0.000000000,9.800000000,0.988559838,0.000000000,0.000000000,0.150829195
4.404165962,0.000000000,0.000000000,0.674753660,0.000000000,-0.000000000,9.800000000,0.988131880,0.000000000,0.000000000,0.153607905
4.408332628,0.000000000,0.000000000,0.665390342,0.000000000,-0.000000000,9.800000000,0.987917994,0.000000000,0.000000000,0.154977535
4.412499294,0.000000000,0.000000000,0.665390342,0.000000000,-0.000000000,9.800000000,0.987702211,0.000000000,0.000000000,0.156346866
4.416665960,0.000000000,0.000000000,0.665390342,0.000000000,0.000000000,9.800000000,0.987484529,0.000000000,0.000000000,0.157715898
4.420832626,0.000000000,0.000000000,0.655770503,0.000000000,0.000000000,9.800000000,0.987268138,0.000000000,0.000000000,0.159064840
4.429165958,0.000000000,0.000000000,0.655770503,0.000000000,0.000000000,9.800000000,0.986829828,0.000000000,0.000000000,0.161761831
4.433332624,0.000000000,0.000000000,0.645897853,0.000000000,0.000000000,9.800000000,0.986611265,0.000000000,0.000000000,0.163089583
4.437499290,0.000000000,0.000000000,0.645897853,0.000000000,0.000000000,9.800000000,0.986390915,0.000000000,0.000000000,0.164417039
4.441665956,0.000000000,0.000000000,0.645897853,0.000000000,0.000000000,9.800000000,0.986168779,0.000000000,0.000000000,0.165744197
4.445832622,0.000000000,0.000000000,0.645897853,0.000000000,0.000000000,9.800000000,0.985944858,0.000000000,0.000000000,0.167071056
4.454165954,0.000000000,0.000000000,0.635776196,0.000000000,0.000000000,9.800000000,0.985498816,0.000000000,0.000000000,0.169682300
4.458332620,0.000000000,0.000000000,0.625409436,0.000000000,-0.000000000,9.800000000,0.985276895,0.000000000,0.000000000,0.170966198
4.462499286,0.000000000,0.000000000,0.625409436,0.000000000,0.000000000,9.800000000,0.985053300,0.000000000,0.000000000,0.172249805
4.466665952,0.000000000,0.000000000,0.625409436,0.000000000,0.000000000,9.800000000,0.984828034,0.000000000,0.000000000,0.173533120
4.470832618,0.000000000,0.000000000,0.614801569,0.000000000,0.000000000,9.800000000,0.984604959,0.000000000,0.000000000,0.174794381
4.479165950,0.000000000,0.000000000,0.614801569,0.000000000,0.000000000,9.800000000,0.984153962,0.000000000,0.000000000,0.177316041
4.483332616,0.000000000,0.000000000,0.603956684,-0.000000000,0.000000000,9.800000000,0.983930077,0.000000000,0.000000000,0.178554205
4.487499282,0.000000000,0.000000000,0.603956684,-0.000000000,0.000000000,9.800000000,0.983704633,0.000000000,0.000000000,0.179792086
