t,wx,wy,wz,ax,ay,az,qw,qx,qy,qz
0.008333332,0.000000000,0.000000000,0.822467033,-0.000000000,0.000000000,9.800000000,0.999998532,0.000000000,0.000000000,0.001713472
0.012499998,0.000000000,0.000000000,0.822467033,-0.000000000,-0.000000000,9.800000000,0.999994128,0.000000000,0.000000000,0.003426939
0.016666664,0.000000000,0.000000000,0.822467033,-0.000000000,0.000000000,9.800000000,0.999986788,0.000000000,0.000000000,0.005140395
0.020833330,0.000000000,0.000000000,0.822308495,0.000000000,-0.000000000,9.800000000,0.999976514,0.000000000,0.000000000,0.006853507
0.029166662,0.000000000,0.000000000,0.822308495,-0.000000000,-0.000000000,9.800000000,0.999947163,0.000000000,0.000000000,0.010279664
0.033333328,0.000000000,0.000000000,0.821832941,0.000000000,0.000000000,9.800000000,0.999928097,0.000000000,0.000000000,0.011991710
0.037499994,0.000000000,0.000000000,0.821832941,0.000000000,0.000000000,9.800000000,0.999906100,0.000000000,0.000000000,0.013703720
0.041666660,0.000000000,0.000000000,0.821832941,0.000000000,0.000000000,9.800000000,0.999881171,0.000000000,0.000000000,0.015415690
0.045833326,0.000000000,0.000000000,0.821040555,0.000000000,0.000000000,9.800000000,0.999853340,0.000000000,0.000000000,0.017125964
0.054166658,0.000000000,0.000000000,0.821040555,0.000000000,0.000000000,9.800000000,0.999788901,0.000000000,0.000000000,0.020546357
0.058333324,0.000000000,0.000000000,0.819931643,0.000000000,0.000000000,9.800000000,0.999752346,0.000000000,0.000000000,0.022254156
0.062499990,0.000000000,0.000000000,0.819931643,0.000000000,0.000000000,9.800000000,0.999712873,0.000000000,0.000000000,0.023961891
0.066666656,0.000000000,0.000000000,0.819931643,0.000000000,0.000000000,9.800000000,0.999670483,0.000000000,0.000000000,0.025669555
0.070833322,0.000000000,0.000000000,0.818506631,0.000000000,0.000000000,9.800000000,0.999625257,0.000000000,0.000000000,0.027374177
0.079166654,0.000000000,0.000000000,0.818506631,0.000000000,0.000000000,9.800000000,0.999526086,0.000000000,0.000000000,0.030783177
0.083333320,0.000000000,0.000000000,0.816766070,-0.000000000,-0.000000000,9.800000000,0.999472258,0.000000000,0.000000000,0.032483921
0.087499986,0.000000000,0.000000000,0.816766070,-0.000000000,-0.000000000,9.800000000,0.999415537,0.000000000,0.000000000,0.034184571
0.091666652,0.000000000,0.000000000,0.816766070,0.000000000,-0.000000000,9.800000000,0.999355922,0.000000000,0.000000000,0.035885122
0.095833318,0.000000000,0.000000000,0.814710629,-0.000000000,0.000000000,9.800000000,0.999293574,0.000000000,0.000000000,0.037581289
0.104166650,0.000000000,0.000000000,0.814710629,-0.000000000,0.000000000,9.800000000,0.999160242,0.000000000,0.000000000,0.040973295
0.108333316,0.000000000,0.000000000,0.812341103,0.000000000,0.000000000,9.800000000,0.999089469,0.000000000,0.000000000,0.042664192
0.112499982,0.000000000,0.000000000,0.812341103,-0.000000000,0.000000000,9.800000000,0.999015834,0.000000000,0.000000000,0.044354966
0.116666648,0.000000000,0.000000000,0.812341103,0.000000000,0.000000000,9.800000000,0.998939338,0.000000000,0.000000000,0.046045613
0.120833314,0.000000000,0.000000000,0.809658403,0.000000000,0.000000000,9.800000000,0.998860248,0.000000000,0.000000000,0.047730546
0.129166646,0.000000000,0.000000000,0.809658403,-0.000000000,0.000000000,9.800000000,0.998693542,0.000000000,0.000000000,0.051099999
0.133333312,0.000000000,0.000000000,0.806663565,-0.000000000,0.000000000,9.800000000,0.998606255,0.000000000,0.000000000,0.052778279
0.137499978,0.000000000,0.000000000,0.806663565,0.000000000,0.000000000,9.800000000,0.998516149,0.000000000,0.000000000,0.054456410
0.141666644,0.000000000,0.000000000,0.806663565,0.000000000,0.000000000,9.800000000,0.998423222,0.000000000,0.000000000,0.056134388
0.145833310,0.000000000,0.000000000,0.803357743,0.000000000,0.000000000,9.800000000,0.998327874,0.000000000,0.000000000,0.057805331
0.154166642,0.000000000,0.000000000,0.803357743,-0.000000000,0.000000000,9.800000000,0.998128788,0.000000000,0.000000000,0.061146727
0.158333308,0.000000000,0.000000000,0.799742211,0.000000000,0.000000000,9.800000000,0.998025524,0.000000000,0.000000000,0.062809653
0.162499974,0.000000000,0.000000000,0.799742211,0.000000000,0.000000000,9.800000000,0.997919490,0.000000000,0.000000000,0.064472405
0.166666640,0.000000000,0.000000000,0.799742211,0.000000000,0.000000000,9.800000000,0.997810686,0.000000000,0.000000000,0.066134978
0.170833306,0.000000000,0.000000000,0.795818364,0.000000000,0.000000000,9.800000000,0.997699666,0.000000000,0.000000000,0.067789211
0.179166638,0.000000000,0.000000000,0.795818364,0.000000000,0.000000000,9.800000000,0.997469398,0.000000000,0.000000000,0.071097114
0.183333304,0.000000000,0.000000000,0.791587713,0.000000000,0.000000000,9.800000000,0.997350793,0.000000000,0.000000000,0.072741984
0.187499970,0.000000000,0.000000000,0.791587713,0.000000000,0.000000000,9.800000000,0.997229475,0.000000000,0.000000000,0.074386656
0.191666636,0.000000000,0.000000000,0.791587713,0.000000000,0.000000000,9.800000000,0.997105445,0.000000000,0.000000000,0.076031126
0.195833302,0.000000000,0.000000000,0.787051890,0.000000000,0.000000000,9.800000000,0.996979437,0.000000000,0.000000000,0.077665968
0.204166634,0.000000000,0.000000000,0.787051890,-0.000000000,0.000000000,9.800000000,0.996719380,0.000000000,0.000000000,0.080935021
0.208333300,0.000000000,0.000000000,0.782212644,0.000000000,0.000000000,9.800000000,0.996586164,0.000000000,0.000000000,0.082559176
0.212499966,0.000000000,0.000000000,0.782212644,0.000000000,0.000000000,9.800000000,0.996450302,0.000000000,0.000000000,0.084183112
0.216666632,0.000000000,0.000000000,0.782212644,0.000000000,0.000000000,9.800000000,0.996311793,0.000000000,0.000000000,0.085806824
0.220833298,0.000000000,0.000000000,0.777071841,0.000000000,0.000000000,9.800000000,0.996171575,0.000000000,0.000000000,0.087419640
0.229166630,0.000000000,0.000000000,0.777071841,0.000000000,0.000000000,9.800000000,0.995883307,0.000000000,0.000000000,0.090644579
0.233333296,0.000000000,0.000000000,0.771631461,0.000000000,0.000000000,9.800000000,0.995736303,0.000000000,0.000000000,0.092245409
0.237499962,0.000000000,0.000000000,0.771631461,0.000000000,0.000000000,9.800000000,0.995586726,0.000000000,0.000000000,0.093846000
0.241666628,0.000000000,0.000000000,0.771631461,0.000000000,0.000000000,9.800000000,0.995434576,0.000000000,0.000000000,0.095446349
0.245833294,0.000000000,0.000000000,0.765893603,0.000000000,-0.000000000,9.800000000,0.995281013,0.000000000,0.000000000,0.097034553
0.254166626,0.000000000,0.000000000,0.765893603,0.000000000,-0.000000000,9.800000000,0.994966287,0.000000000,0.000000000,0.100210217
0.258333292,0.000000000,0.000000000,0.759860478,-0.000000000,-0.000000000,9.800000000,0.994806403,0.000000000,0.000000000,0.101785165
0.262499958,0.000000000,0.000000000,0.759860478,-0.000000000,0.000000000,9.800000000,0.994644027,0.000000000,0.000000000,0.103359857
0.266666624,0.000000000,0.000000000,0.759860478,-0.000000000,0.000000000,9.800000000,0.994479157,0.000000000,0.000000000,0.104934291
0.270833290,0.000000000,0.000000000,0.753534413,0.000000000,0.000000000,9.800000000,0.994313200,0.000000000,0.000000000,0.106495357
0.279166622,0.000000000,0.000000000,0.753534413,0.000000000,0.000000000,9.800000000,0.993973933,0.000000000,0.000000000,0.109616698
0.283333288,0.000000000,0.000000000,0.746917846,0.000000000,0.000000000,9.800000000,0.993802157,0.000000000,0.000000000,0.111163267
0.287499954,0.000000000,0.000000000,0.746917846,-0.000000000,0.000000000,9.800000000,0.993627976,0.000000000,0.000000000,0.112709566
0.291666620,0.000000000,0.000000000,0.746917846,-0.000000000,0.000000000,9.800000000,0.993451388,0.000000000,0.000000000,0.114255592
0.295833286,0.000000000,0.000000000,0.740013328,-0.000000000,0.000000000,9.800000000,0.993274060,0.000000000,0.000000000,0.115787054
0.304166618,0.000000000,0.000000000,0.740013328,0.000000000,0.000000000,9.800000000,0.992912322,0.000000000,0.000000000,0.118849148
0.308333284,0.000000000,0.000000000,0.732823521,-0.000000000,0.000000000,9.800000000,0.992729716,0.000000000,0.000000000,0.120364904
0.312499950,0.000000000,0.000000000,0.732823521,0.000000000,0.000000000,9.800000000,0.992544797,0.000000000,0.000000000,0.121880378
0.316666616,0.000000000,0.000000000,0.732823521,0.000000000,0.000000000,9.800000000,0.992357563,0.000000000,0.000000000,0.123395569
0.320833282,0.000000000,0.000000000,0.725351196,0.000000000,0.000000000,9.800000000,0.992169961,0.000000000,0.000000000,0.124895027
0.329166614,0.000000000,0.000000000,0.725351196,0.000000000,0.000000000,9.800000000,0.991787961,0.000000000,0.000000000,0.127893084
0.333333280,0.000000000,0.000000000,0.717599235,0.000000000,0.000000000,9.800000000,0.991595653,0.000000000,0.000000000,0.129375661
0.337499946,0.000000000,0.000000000,0.717599235,0.000000000,0.000000000,9.800000000,0.991401128,0.000000000,0.000000000,0.130857950
0.341666612,0.000000000,0.000000000,0.717599235,0.000000000,0.000000000,9.800000000,0.991204388,0.000000000,0.000000000,0.132339946
0.345833278,0.000000000,0.000000000,0.709570626,0.000000000,-0.000000000,9.800000000,0.991007671,0.000000000,0.000000000,0.133805070
0.354166610,0.000000000,0.000000000,0.709570626,0.000000000,0.000000000,9.800000000,0.990607739,0.000000000,0.000000000,0.136734439
0.358333276,0.000000000,0.000000000,0.701268464,-0.000000000,-0.000000000,9.800000000,0.990406917,0.000000000,0.000000000,0.138181546
0.362499942,0.000000000,0.000000000,0.701268464,-0.000000000,0.000000000,9.800000000,0.990203980,0.000000000,0.000000000,0.139628359
0.366666608,0.000000000,0.000000000,0.701268464,-0.000000000,-0.000000000,9.800000000,0.989998929,0.000000000,0.000000000,0.141074873
0.370833274,0.000000000,0.000000000,0.692695950,0.000000000,0.000000000,9.800000000,0.989794311,0.000000000,0.000000000,0.142503409
0.379166606,0.000000000,0.000000000,0.692695950,-0.000000000,0.000000000,9.800000000,0.989378891,0.000000000,0.000000000,0.145359589
0.383333272,0.000000000,0.000000000,0.683856388,-0.000000000,0.000000000,9.800000000,0.989170793,0.000000000,0.000000000,0.146769009
0.387499938,0.000000000,0.000000000,0.683856388,-0.000000000,0.000000000,9.800000000,0.988960687,0.000000000,0.000000000,0.148178132
0.391666604,0.000000000,0.000000000,0.683856388,-0.000000000,0.000000000,9.800000000,0.988748574,0.000000000,0.000000000,0.149586954
0.395833270,0.000000000,0.000000000,0.674753187,0.000000000,-0.000000000,9.800000000,0.988537318,0.000000000,0.000000000,0.150976725
0.404166602,0.000000000,0.000000000,0.674753187,0.000000000,-0.000000000,9.800000000,0.988108945,0.000000000,0.000000000,0.153755369
0.408333268,0.000000000,0.000000000,0.665389856,-0.000000000,-0.000000000,9.800000000,0.987894855,0.000000000,0.000000000,0.155124965
0.412499934,0.000000000,0.000000000,0.665389856,-0.000000000,0.000000000,9.800000000,0.987678868,0.000000000,0.000000000,0.156494264
0.416666600,0.000000000,0.000000000,0.665389856,-0.000000000,-0.000000000,9.800000000,0.987460982,0.000000000,0.000000000,0.157863262
0.420833266,0.000000000,0.000000000,0.655770004,-0.000000000,0.000000000,9.800000000,0.987244390,0.000000000,0.000000000,0.159212171
0.429166598,0.000000000,0.000000000,0.655770004,-0.000000000,-0.000000000,9.800000000,0.986805677,0.000000000,0.000000000,0.161909095
0.433333264,0.000000000,0.000000000,0.645897341,0.000000000,0.000000000,9.800000000,0.986586916,0.000000000,0.000000000,0.163236812
0.437499930,0.000000000,0.000000000,0.645897341,0.000000000,0.000000000,9.800000000,0.986366368,0.000000000,0.000000000,0.164564235
0.441666596,0.000000000,0.000000000,0.645897341,0.000000000,0.000000000,9.800000000,0.986144035,0.000000000,0.000000000,0.165891359
0.445833262,0.000000000,0.000000000,0.635775672,0.000000000,-0.000000000,9.800000000,0.985923441,0.000000000,0.000000000,0.167197393
0.454166594,0.000000000,0.000000000,0.635775672,-0.000000000,-0.000000000,9.800000000,0.985477066,0.000000000,0.000000000,0.169808578
0.458333260,0.000000000,0.000000000,0.625408899,-0.000000000,-0.000000000,9.800000000,0.985254980,0.000000000,0.000000000,0.171092446
0.462499926,0.000000000,0.000000000,0.625408899,-0.000000000,-0.000000000,9.800000000,0.985031221,0.000000000,0.000000000,0.172376024
0.466666592,0.000000000,0.000000000,0.625408899,-0.000000000,0.000000000,9.800000000,0.984805790,0.000000000,0.000000000,0.173659309
0.470833258,0.000000000,0.000000000,0.614801020,-0.000000000,-0.000000000,9.800000000,0.984582554,0.000000000,0.000000000,0.174920540
0.479166590,0.000000000,0.000000000,0.614801020,-0.000000000,-0.000000000,9.800000000,0.984131235,0.000000000,0.000000000,0.177442139
0.483333256,0.000000000,0.000000000,0.603956123,0.000000000,0.000000000,9.800000000,0.983907191,0.000000000,0.000000000,0.178680273
0.487499922,0.000000000,0.000000000,0.603956123,0.000000000,0.000000000,9.800000000,0.983681589,0.000000000,0.000000000,0.179918125
0.491666588,0.000000000,0.000000000,0.603956123,-0.000000000,0.000000000,9.800000000,0.983454430,0.000000000,0.000000000,0.181155691
0.495833254,0.000000000,0.000000000,0.592878389,0.000000000,0.000000000,9.800000000,0.983229923,0.000000000,0.000000000,0.182370279
0.504166586,0.000000000,0.000000000,0.592878389,0.000000000,0.000000000,9.800000000,0.982776409,0.000000000,0.000000000,0.184798619
0.508333252,0.000000000,0.000000000,0.581572090,0.000000000,0.000000000,9.800000000,0.982551784,0.000000000,0.000000000,0.185989223
0.512499918,0.000000000,0.000000000,0.581572090,0.000000000,0.000000000,9.800000000,0.982325717,0.000000000,0.000000000,0.187179554
0.516666584,0.000000000,0.000000000,0.581572090,-0.000000000,-0.000000000,9.800000000,0.982098208,0.000000000,0.000000000,0.188369611
0.520833250,0.000000000,0.000000000,0.570041583,-0.000000000,0.000000000,9.800000000,0.981873810,0.000000000,0.000000000,0.189535804
0.529166582,0.000000000,0.000000000,0.570041583,-0.000000000,0.000000000,9.800000000,0.981420861,0.000000000,0.000000000,0.191867387
0.533333248,0.000000000,0.000000000,0.558291315,0.000000000,-0.000000000,9.800000000,0.981197035,0.000000000,0.000000000,0.193008755
0.537499914,0.000000000,0.000000000,0.558291315,0.000000000,-0.000000000,9.800000000,0.980971881,0.000000000,0.000000000,0.194149861
0.541666580,0.000000000,0.000000000,0.558291315,0.000000000,0.000000000,9.800000000,0.980745401,0.000000000,0.000000000,0.195290704
0.545833246,0.000000000,0.000000000,0.546325815,0.000000000,0.000000000,9.800000000,0.980522490,0.000000000,0.000000000,0.196406841
0.554166578,0.000000000,0.000000000,0.546325815,0.000000000,0.000000000,9.800000000,0.980072858,0.000000000,0.000000000,0.198638349
0.558333244,0.000000000,0.000000000,0.546325815,0.000000000,0.000000000,9.800000000,0.979846137,0.000000000,0.000000000,0.199753718
0.562499910,0.000000000,0.000000000,0.534149696,0.000000000,0.000000000,9.800000000,0.979623242,0.000000000,0.000000000,0.200843979
0.566666576,0.000000000,0.000000000,0.534149696,-0.000000000,0.000000000,9.800000000,0.979399134,0.000000000,0.000000000,0.201933990
0.570833242,0.000000000,0.000000000,0.521767652,0.000000000,-0.000000000,9.800000000,0.979179050,0.000000000,0.000000000,0.202998493
0.579166574,0.000000000,0.000000000,0.521767652,0.000000000,-0.000000000,9.800000000,0.978735411,0.000000000,0.000000000,0.205126778
0.583333240,0.000000000,0.000000000,0.509184457,0.000000000,0.000000000,9.800000000,0.978517262,0.000000000,0.000000000,0.206164906
0.587499906,0.000000000,0.000000000,0.509184457,0.000000000,0.000000000,9.800000000,0.978298011,0.000000000,0.000000000,0.207202801
0.591666572,0.000000000,0.000000000,0.509184457,0.000000000,0.000000000,9.800000000,0.978077660,0.000000000,0.000000000,0.208240464
0.595833238,0.000000000,0.000000000,0.496404962,0.000000000,-0.000000000,9.800000000,0.977861780,0.000000000,0.000000000,0.209251857
0.604166570,0.000000000,0.000000000,0.496404962,0.000000000,0.000000000,9.800000000,0.977426881,0.000000000,0.000000000,0.211273972
0.608333236,0.000000000,0.000000000,0.483434093,-0.000000000,0.000000000,9.800000000,0.977213600,0.000000000,0.000000000,0.212258285
0.612499902,0.000000000,0.000000000,0.483434093,-0.000000000,0.000000000,9.800000000,0.976999328,0.000000000,0.000000000,0.213242382
0.616666568,0.000000000,0.000000000,0.483434093,0.000000000,0.000000000,9.800000000,0.976784064,0.000000000,0.000000000,0.214226262
0.620833234,0.000000000,0.000000000,0.470276851,-0.000000000,0.000000000,9.800000000,0.976573709,0.000000000,0.000000000,0.215183157
0.629166566,0.000000000,0.000000000,0.470276851,-0.000000000,-0.000000000,9.800000000,0.976150186,0.000000000,0.000000000,0.217096326
0.633333232,0.000000000,0.000000000,0.456938309,0.000000000,-0.000000000,9.800000000,0.975943078,0.000000000,0.000000000,0.218025478
0.637499898,0.000000000,0.000000000,0.456938309,0.000000000,-0.000000000,9.800000000,0.975735085,0.000000000,0.000000000,0.218954433
0.641666564,0.000000000,0.000000000,0.456938309,0.000000000,-0.000000000,9.800000000,0.975526208,0.000000000,0.000000000,0.219883189
0.645833230,0.000000000,0.000000000,0.443423608,0.000000000,0.000000000,9.800000000,0.975322664,0.000000000,0.000000000,0.220784285
0.654166562,0.000000000,0.000000000,0.443423608,0.000000000,0.000000000,9.800000000,0.974913079,0.000000000,0.000000000,0.222585911
0.658333228,0.000000000,0.000000000,0.429737959,0.000000000,-0.000000000,9.800000000,0.974713410,0.000000000,0.000000000,0.223458649
0.662499894,0.000000000,0.000000000,0.429737959,0.000000000,-0.000000000,9.800000000,0.974512960,0.000000000,0.000000000,0.224331208
0.666666560,0.000000000,0.000000000,0.429737959,0.000000000,-0.000000000,9.800000000,0.974311729,0.000000000,0.000000000,0.225203587
0.670833226,0.000000000,0.000000000,0.415886638,0.000000000,0.000000000,9.800000000,0.974116240,0.000000000,0.000000000,0.226047676
0.679166558,0.000000000,0.000000000,0.415886638,0.000000000,0.000000000,9.800000000,0.973723068,0.000000000,0.000000000,0.227735343
0.683333224,0.000000000,0.000000000,0.401874985,0.000000000,0.000000000,9.800000000,0.973532058,0.000000000,0.000000000,0.228550503
0.687499890,0.000000000,0.000000000,0.401874985,-0.000000000,0.000000000,9.800000000,0.973340365,0.000000000,0.000000000,0.229365502
0.691666556,0.000000000,0.000000000,0.401874985,0.000000000,0.000000000,9.800000000,0.973147990,0.000000000,0.000000000,0.230180340
0.695833222,0.000000000,0.000000000,0.387708401,-0.000000000,-0.000000000,9.800000000,0.972961750,0.000000000,0.000000000,0.230966302
0.704166554,0.000000000,0.000000000,0.387708401,-0.000000000,-0.000000000,9.800000000,0.972587366,0.000000000,0.000000000,0.232537772
0.708333220,0.000000000,0.000000000,0.373392348,-0.000000000,-0.000000000,9.800000000,0.972406180,0.000000000,0.000000000,0.233294278
0.712499886,0.000000000,0.000000000,0.373392348,-0.000000000,0.000000000,9.800000000,0.972224407,0.000000000,0.000000000,0.234050643
0.716666552,0.000000000,0.000000000,0.373392348,-0.000000000,0.000000000,9.800000000,0.972042044,0.000000000,0.000000000,0.234806866
0.720833218,0.000000000,0.000000000,0.358932346,-0.000000000,-0.000000000,9.800000000,0.971866190,0.000000000,0.000000000,0.235533669
0.729166550,0.000000000,0.000000000,0.358932346,0.000000000,0.000000000,9.800000000,0.971512850,0.000000000,0.000000000,0.236986881
0.733333216,0.000000000,0.000000000,0.344333968,-0.000000000,-0.000000000,9.800000000,0.971342595,0.000000000,0.000000000,0.237683747
0.737499882,0.000000000,0.000000000,0.344333968,-0.000000000,-0.000000000,9.800000000,0.971171840,0.000000000,0.000000000,0.238380490
0.741666548,0.000000000,0.000000000,0.344333968,-0.000000000,0.000000000,9.800000000,0.971000584,0.000000000,0.000000000,0.239077111
0.745833214,0.000000000,0.000000000,0.329602844,-0.000000000,-0.000000000,9.800000000,0.970836188,0.000000000,0.000000000,0.239743814
0.754166546,0.000000000,0.000000000,0.329602844,-0.000000000,-0.000000000,9.800000000,0.970506022,0.000000000,0.000000000,0.241076880
0.758333212,0.000000000,0.000000000,0.314744651,0.000000000,-0.000000000,9.800000000,0.970347734,0.000000000,0.000000000,0.241713207
0.762499878,0.000000000,0.000000000,0.314744651,-0.000000000,-0.000000000,9.800000000,0.970189030,0.000000000,0.000000000,0.242349429
0.766666544,0.000000000,0.000000000,0.314744651,0.000000000,-0.000000000,9.800000000,0.970029909,0.000000000,0.000000000,0.242985547
0.770833210,0.000000000,0.000000000,0.299765118,0.000000000,0.000000000,9.800000000,0.969877973,0.000000000,0.000000000,0.243591294
0.779166542,0.000000000,0.000000000,0.299765118,0.000000000,0.000000000,9.800000000,0.969572965,0.000000000,0.000000000,0.244802501
0.783333208,0.000000000,0.000000000,0.284670019,0.000000000,-0.000000000,9.800000000,0.969427612,0.000000000,0.000000000,0.245377476
0.787499874,0.000000000,0.000000000,0.284670019,0.000000000,-0.000000000,9.800000000,0.969281917,0.000000000,0.000000000,0.245952364
0.791666540,0.000000000,0.000000000,0.284670019,-0.000000000,-0.000000000,9.800000000,0.969135882,0.000000000,0.000000000,0.246527165
0.795833206,0.000000000,0.000000000,0.269465176,0.000000000,0.000000000,9.800000000,0.968997332,0.000000000,0.000000000,0.247071185
0.804166538,0.000000000,0.000000000,0.269465176,0.000000000,0.000000000,9.800000000,0.968719317,0.000000000,0.000000000,0.248158992
0.808333204,0.000000000,0.000000000,0.254156448,-0.000000000,-0.000000000,9.800000000,0.968587783,0.000000000,0.000000000,0.248671887
0.812499870,0.000000000,0.000000000,0.254156448,-0.000000000,0.000000000,9.800000000,0.968455977,0.000000000,0.000000000,0.249184712
0.816666536,0.000000000,0.000000000,0.254156448,-0.000000000,-0.000000000,9.800000000,0.968323900,0.000000000,0.000000000,0.249697467
0.820833202,0.000000000,0.000000000,0.238749738,0.000000000,-0.000000000,9.800000000,0.968199582,0.000000000,0.000000000,0.250179076
0.829166534,0.000000000,0.000000000,0.238749738,0.000000000,0.000000000,9.800000000,0.967950227,0.000000000,0.000000000,0.251142108
0.833333200,0.000000000,0.000000000,0.223250986,-0.000000000,-0.000000000,9.800000000,0.967833314,0.000000000,0.000000000,0.251592280
0.837499866,0.000000000,0.000000000,0.223250986,-0.000000000,0.000000000,9.800000000,0.967716193,0.000000000,0.000000000,0.252042398
0.841666532,0.000000000,0.000000000,0.223250986,-0.000000000,0.000000000,9.800000000,0.967598862,0.000000000,0.000000000,0.252492462
0.845833198,0.000000000,0.000000000,0.207666166,0.000000000,-0.000000000,9.800000000,0.967489533,0.000000000,0.000000000,0.252911058
0.854166530,0.000000000,0.000000000,0.207666166,0.000000000,-0.000000000,9.800000000,0.967270333,0.000000000,0.000000000,0.253748108
0.858333196,0.000000000,0.000000000,0.192001287,0.000000000,0.000000000,9.800000000,0.967168756,0.000000000,0.000000000,0.254134999
0.862499862,0.000000000,0.000000000,0.192001287,-0.000000000,-0.000000000,9.800000000,0.967067024,0.000000000,0.000000000,0.254521848
0.866666528,0.000000000,0.000000000,0.192001287,0.000000000,0.000000000,9.800000000,0.966965137,0.000000000,0.000000000,0.254908657
0.870833194,0.000000000,0.000000000,0.176262388,0.000000000,0.000000000,9.800000000,0.966871466,0.000000000,0.000000000,0.255263723
0.879166526,0.000000000,0.000000000,0.176262388,0.000000000,0.000000000,9.800000000,0.966683733,0.000000000,0.000000000,0.255973750
0.883333192,0.000000000,0.000000000,0.160455536,0.000000000,0.000000000,9.800000000,0.966598111,0.000000000,0.000000000,0.256296881
0.887499858,0.000000000,0.000000000,0.160455536,0.000000000,0.000000000,9.800000000,0.966512382,0.000000000,0.000000000,0.256619983
0.891666524,0.000000000,0.000000000,0.160455536,0.000000000,-0.000000000,9.800000000,0.966426544,0.000000000,0.000000000,0.256943057
0.895833190,0.000000000,0.000000000,0.144586825,0.000000000,-0.000000000,9.800000000,0.966349103,0.000000000,0.000000000,0.257234155
0.904166522,0.000000000,0.000000000,0.144586825,0.000000000,-0.000000000,9.800000000,0.966193959,0.000000000,0.000000000,0.257816280
0.908333188,0.000000000,0.000000000,0.128662374,-0.000000000,0.000000000,9.800000000,0.966124817,0.000000000,0.000000000,0.258075256
0.912499854,0.000000000,0.000000000,0.128662374,0.000000000,0.000000000,9.800000000,0.966055606,0.000000000,0.000000000,0.258334213
0.916666520,0.000000000,0.000000000,0.128662374,0.000000000,0.000000000,9.800000000,0.965986326,0.000000000,0.000000000,0.258593152
0.920833186,0.000000000,0.000000000,0.112688321,0.000000000,0.000000000,9.800000000,0.965925590,0.000000000,0.000000000,0.258819927
0.929166518,0.000000000,0.000000000,0.112688321,0.000000000,0.000000000,9.800000000,0.965803959,0.000000000,0.000000000,0.259273433
0.933333184,0.000000000,0.000000000,0.096670824,-0.000000000,-0.000000000,9.800000000,0.965751722,0.000000000,0.000000000,0.259467939
0.937499850,0.000000000,0.000000000,0.096670824,-0.000000000,-0.000000000,9.800000000,0.965699446,0.000000000,0.000000000,0.259662433
0.941666516,0.000000000,0.000000000,0.096670824,-0.000000000,-0.000000000,9.800000000,0.965647131,0.000000000,0.000000000,0.259856918
0.945833182,0.000000000,0.000000000,0.080616059,0.000000000,-0.000000000,9.800000000,0.965603475,0.000000000,0.000000000,0.260019095
0.954166514,0.000000000,0.000000000,0.080616059,0.000000000,-0.000000000,9.800000000,0.965516080,0.000000000,0.000000000,0.260343426
0.958333180,0.000000000,0.000000000,0.064530215,0.000000000,0.000000000,9.800000000,0.965481071,0.000000000,0.000000000,0.260473226
0.962499846,0.000000000,0.000000000,0.064530215,0.000000000,0.000000000,9.800000000,0.965446045,0.000000000,0.000000000,0.260603021
0.966666512,0.000000000,0.000000000,0.064530215,0.000000000,0.000000000,9.800000000,0.965411001,0.000000000,0.000000000,0.260732811
0.970833178,0.000000000,0.000000000,0.048419494,0.000000000,-0.000000000,9.800000000,0.965384695,0.000000000,0.000000000,0.260830195
0.979166510,0.000000000,0.000000000,0.048419494,-0.000000000,-0.000000000,9.800000000,0.965332054,0.000000000,0.000000000,0.261024953
0.983333176,0.000000000,0.000000000,0.032290106,-0.000000000,0.000000000,9.800000000,0.965314492,0.000000000,0.000000000,0.261089892
0.987499842,0.000000000,0.000000000,0.032290106,-0.000000000,0.000000000,9.800000000,0.965296926,0.000000000,0.000000000,0.261154829
0.991666508,0.000000000,0.000000000,0.032290106,-0.000000000,0.000000000,9.800000000,0.965279356,0.000000000,0.000000000,0.261219765
0.995833174,0.000000000,0.000000000,0.016148269,0.000000000,0.000000000,9.800000000,0.965270567,0.000000000,0.000000000,0.261252239
1.004166506,0.000000000,0.000000000,0.016148269,0.000000000,0.000000000,9.800000000,0.965252987,0.000000000,0.000000000,0.261317186
1.008333172,0.000000000,0.000000000,0.000000207,0.000000000,0.000000000,9.800000000,0.965252987,0.000000000,0.000000000,0.261317186
1.012499838,0.000000000,0.000000000,0.000000207,0.000000000,0.000000000,9.800000000,0.965252986,0.000000000,0.000000000,0.261317187
1.016666504,0.000000000,0.000000000,0.000000207,0.000000000,0.000000000,9.800000000,0.965252986,0.000000000,0.000000000,0.261317187
1.020833170,0.000000000,0.000000000,-0.016147856,-0.000000000,-0.000000000,9.800000000,0.965261777,0.000000000,0.000000000,0.261284715
1.029166502,0.000000000,0.000000000,-0.016147856,-0.000000000,-0.000000000,9.800000000,0.965279355,0.000000000,0.000000000,0.261219769
1.033333168,0.000000000,0.000000000,-0.032289692,0.000000000,-0.000000000,9.800000000,0.965296925,0.000000000,0.000000000,0.261154833
1.037499834,0.000000000,0.000000000,-0.032289692,0.000000000,0.000000000,9.800000000,0.965314491,0.000000000,0.000000000,0.261089897
1.041666500,0.000000000,0.000000000,-0.032289692,0.000000000,0.000000000,9.800000000,0.965332052,0.000000000,0.000000000,0.261024960
1.045833166,0.000000000,0.000000000,-0.048419081,0.000000000,-0.000000000,9.800000000,0.965358377,0.000000000,0.000000000,0.260927582
1.054166498,0.000000000,0.000000000,-0.048419081,0.000000000,0.000000000,9.800000000,0.965410999,0.000000000,0.000000000,0.260732820
1.058333164,0.000000000,0.000000000,-0.064529803,0.000000000,-0.000000000,9.800000000,0.965446042,0.000000000,0.000000000,0.260603030
1.062499830,0.000000000,0.000000000,-0.064529803,0.000000000,-0.000000000,9.800000000,0.965481068,0.000000000,0.000000000,0.260473236
1.066666496,0.000000000,0.000000000,-0.064529803,0.000000000,-0.000000000,9.800000000,0.965516077,0.000000000,0.000000000,0.260343437
1.070833162,0.000000000,0.000000000,-0.080615648,-0.000000000,0.000000000,9.800000000,0.965559788,0.000000000,0.000000000,0.260181276
1.079166494,0.000000000,0.000000000,-0.080615648,0.000000000,0.000000000,9.800000000,0.965647128,0.000000000,0.000000000,0.259856931
1.083333160,0.000000000,0.000000000,-0.096670414,0.000000000,0.000000000,9.800000000,0.965699442,0.000000000,0.000000000,0.259662448
1.087499826,0.000000000,0.000000000,-0.096670414,0.000000000,0.000000000,9.800000000,0.965751718,0.000000000,0.000000000,0.259467954
1.091666492,0.000000000,0.000000000,-0.096670414,0.000000000,0.000000000,9.800000000,0.965803954,0.000000000,0.000000000,0.259273450
1.095833158,0.000000000,0.000000000,-0.112687912,-0.000000000,0.000000000,9.800000000,0.965864796,0.000000000,0.000000000,0.259046704
1.104166490,0.000000000,0.000000000,-0.112687912,-0.000000000,0.000000000,9.800000000,0.965986321,0.000000000,0.000000000,0.258593170
1.108333156,0.000000000,0.000000000,-0.128661966,-0.000000000,0.000000000,9.800000000,0.966055601,0.000000000,0.000000000,0.258334232
1.112499822,0.000000000,0.000000000,-0.128661966,0.000000000,0.000000000,9.800000000,0.966124812,0.000000000,0.000000000,0.258075276
1.116666488,0.000000000,0.000000000,-0.128661966,-0.000000000,0.000000000,9.800000000,0.966193953,0.000000000,0.000000000,0.257816301
1.120833154,0.000000000,0.000000000,-0.144586418,-0.000000000,0.000000000,9.800000000,0.966271569,0.000000000,0.000000000,0.257525251
1.129166486,0.000000000,0.000000000,-0.144586418,-0.000000000,0.000000000,9.800000000,0.966426538,0.000000000,0.000000000,0.256943080
1.133333152,0.000000000,0.000000000,-0.160455130,0.000000000,0.000000000,9.800000000,0.966512375,0.000000000,0.000000000,0.256620008
1.137499818,0.000000000,0.000000000,-0.160455130,0.000000000,0.000000000,9.800000000,0.966598105,0.000000000,0.000000000,0.256296906
1.141666484,0.000000000,0.000000000,-0.160455130,0.000000000,0.000000000,9.800000000,0.966683726,0.000000000,0.000000000,0.255973776
1.145833150,0.000000000,0.000000000,-0.176261984,0.000000000,-0.000000000,9.800000000,0.966777658,0.000000000,0.000000000,0.255618780
1.154166482,0.000000000,0.000000000,-0.176261984,0.000000000,0.000000000,9.800000000,0.966965130,0.000000000,0.000000000,0.254908686
1.158333148,0.000000000,0.000000000,-0.192000885,-0.000000000,-0.000000000,9.800000000,0.967067016,0.000000000,0.000000000,0.254521878
1.162499814,0.000000000,0.000000000,-0.192000885,-0.000000000,-0.000000000,9.800000000,0.967168748,0.000000000,0.000000000,0.254135029
1.166666480,0.000000000,0.000000000,-0.192000885,-0.000000000,-0.000000000,9.800000000,0.967270325,0.000000000,0.000000000,0.253748139
1.170833146,0.000000000,0.000000000,-0.207665766,-0.000000000,-0.000000000,9.800000000,0.967380015,0.000000000,0.000000000,0.253329638
1.179166478,0.000000000,0.000000000,-0.207665766,-0.000000000,-0.000000000,9.800000000,0.967598853,0.000000000,0.000000000,0.252492495
1.183333144,0.000000000,0.000000000,-0.223250588,-0.000000000,0.000000000,9.800000000,0.967716184,0.000000000,0.000000000,0.252042432
1.187499810,0.000000000,0.000000000,-0.223250588,-0.000000000,0.000000000,9.800000000,0.967833305,0.000000000,0.000000000,0.251592315
1.191666476,0.000000000,0.000000000,-0.223250588,-0.000000000,0.000000000,9.800000000,0.967950218,0.000000000,0.000000000,0.251142143
1.195833142,0.000000000,0.000000000,-0.238749342,-0.000000000,-0.000000000,9.800000000,0.968075015,0.000000000,0.000000000,0.250660659
1.204166474,0.000000000,0.000000000,-0.238749342,-0.000000000,-0.000000000,9.800000000,0.968323890,0.000000000,0.000000000,0.249697505
1.208333140,0.000000000,0.000000000,-0.254156055,-0.000000000,0.000000000,9.800000000,0.968455967,0.000000000,0.000000000,0.249184751
1.212499806,0.000000000,0.000000000,-0.254156055,0.000000000,0.000000000,9.800000000,0.968587773,0.000000000,0.000000000,0.248671926
1.216666472,0.000000000,0.000000000,-0.254156055,0.000000000,0.000000000,9.800000000,0.968719306,0.000000000,0.000000000,0.248159032
1.220833138,0.000000000,0.000000000,-0.269464785,0.000000000,0.000000000,9.800000000,0.968858467,0.000000000,0.000000000,0.247615169
1.229166470,0.000000000,0.000000000,-0.269464785,0.000000000,0.000000000,9.800000000,0.969135871,0.000000000,0.000000000,0.246527208
1.233333136,0.000000000,0.000000000,-0.284669632,0.000000000,0.000000000,9.800000000,0.969281906,0.000000000,0.000000000,0.245952407
1.237499802,0.000000000,0.000000000,-0.284669632,0.000000000,0.000000000,9.800000000,0.969427600,0.000000000,0.000000000,0.245377520
1.241666468,0.000000000,0.000000000,-0.284669632,0.000000000,0.000000000,9.800000000,0.969572954,0.000000000,0.000000000,0.244802547
1.245833134,0.000000000,0.000000000,-0.299764733,0.000000000,0.000000000,9.800000000,0.969725646,0.000000000,0.000000000,0.244196991
1.254166466,0.000000000,0.000000000,-0.299764733,0.000000000,-0.000000000,9.800000000,0.970029897,0.000000000,0.000000000,0.242985595
1.258333132,0.000000000,0.000000000,-0.314744269,0.000000000,-0.000000000,9.800000000,0.970189018,0.000000000,0.000000000,0.242349477
1.262499798,0.000000000,0.000000000,-0.314744269,0.000000000,0.000000000,9.800000000,0.970347722,0.000000000,0.000000000,0.241713256
1.266666464,0.000000000,0.000000000,-0.314744269,0.000000000,-0.000000000,9.800000000,0.970506009,0.000000000,0.000000000,0.241076930
1.270833130,0.000000000,0.000000000,-0.329602465,-0.000000000,0.000000000,9.800000000,0.970671321,0.000000000,0.000000000,0.240410455
1.279166462,0.000000000,0.000000000,-0.329602465,-0.000000000,-0.000000000,9.800000000,0.971000572,0.000000000,0.000000000,0.239077163
1.283333128,0.000000000,0.000000000,-0.344333593,-0.000000000,-0.000000000,9.800000000,0.971171826,0.000000000,0.000000000,0.238380543
1.287499794,0.000000000,0.000000000,-0.344333593,-0.000000000,0.000000000,9.800000000,0.971342582,0.000000000,0.000000000,0.237683801
1.291666460,0.000000000,0.000000000,-0.344333593,-0.000000000,-0.000000000,9.800000000,0.971512837,0.000000000,0.000000000,0.236986936
1.295833126,0.000000000,0.000000000,-0.358931974,-0.000000000,0.000000000,9.800000000,0.971689778,0.000000000,0.000000000,0.236260397
1.304166458,0.000000000,0.000000000,-0.358931974,0.000000000,0.000000000,9.800000000,0.972042030,0.000000000,0.000000000,0.234806923
1.308333124,0.000000000,0.000000000,-0.373391980,0.000000000,0.000000000,9.800000000,0.972224393,0.000000000,0.000000000,0.234050701
1.312499790,0.000000000,0.000000000,-0.373391980,0.000000000,0.000000000,9.800000000,0.972406166,0.000000000,0.000000000,0.233294337
1.316666456,0.000000000,0.000000000,-0.373391980,0.000000000,0.000000000,9.800000000,0.972587352,0.000000000,0.000000000,0.232537831
1.320833122,0.000000000,0.000000000,-0.387708036,0.000000000,0.000000000,9.800000000,0.972774861,0.000000000,0.000000000,0.231752173
1.329166454,0.000000000,0.000000000,-0.387708036,0.000000000,0.000000000,9.800000000,0.973147976,0.000000000,0.000000000,0.230180402
1.333333120,0.000000000,0.000000000,-0.401874624,0.000000000,0.000000000,9.800000000,0.973340351,0.000000000,0.000000000,0.229365564
1.337499786,0.000000000,0.000000000,-0.401874624,-0.000000000,0.000000000,9.800000000,0.973532043,0.000000000,0.000000000,0.228550566
1.341666452,0.000000000,0.000000000,-0.401874624,0.000000000,0.000000000,9.800000000,0.973723053,0.000000000,0.000000000,0.227735407
1.345833118,0.000000000,0.000000000,-0.415886281,0.000000000,0.000000000,9.800000000,0.973920004,0.000000000,0.000000000,0.226891659
1.354166450,0.000000000,0.000000000,-0.415886281,0.000000000,0.000000000,9.800000000,0.974311713,0.000000000,0.000000000,0.225203653
1.358333116,0.000000000,0.000000000,-0.429737607,0.000000000,0.000000000,9.800000000,0.974512945,0.000000000,0.000000000,0.224331275
1.362499782,0.000000000,0.000000000,-0.429737607,0.000000000,0.000000000,9.800000000,0.974713395,0.000000000,0.000000000,0.223458717
1.366666448,0.000000000,0.000000000,-0.429737607,0.000000000,0.000000000,9.800000000,0.974913064,0.000000000,0.000000000,0.222585979
1.370833114,0.000000000,0.000000000,-0.443423260,0.000000000,0.000000000,9.800000000,0.975118272,0.000000000,0.000000000,0.221685262
1.379166446,0.000000000,0.000000000,-0.443423260,0.000000000,0.000000000,9.800000000,0.975526193,0.000000000,0.000000000,0.219883259
1.383333112,0.000000000,0.000000000,-0.456937965,-0.000000000,-0.000000000,9.800000000,0.975735069,0.000000000,0.000000000,0.218954503
1.387499778,0.000000000,0.000000000,-0.456937965,-0.000000000,-0.000000000,9.800000000,0.975943062,0.000000000,0.000000000,0.218025550
1.391666444,0.000000000,0.000000000,-0.456937965,-0.000000000,-0.000000000,9.800000000,0.976150170,0.000000000,0.000000000,0.217096398
1.395833110,0.000000000,0.000000000,-0.470276512,-0.000000000,0.000000000,9.800000000,0.976362400,0.000000000,0.000000000,0.216139918
1.404166442,0.000000000,0.000000000,-0.470276512,0.000000000,0.000000000,9.800000000,0.976784048,0.000000000,0.000000000,0.214226337
1.408333108,0.000000000,0.000000000,-0.483433759,0.000000000,0.000000000,9.800000000,0.976999311,0.000000000,0.000000000,0.213242457
1.412499774,0.000000000,0.000000000,-0.483433759,0.000000000,-0.000000000,9.800000000,0.977213584,0.000000000,0.000000000,0.212258361
1.416666440,0.000000000,0.000000000,-0.483433759,0.000000000,-0.000000000,9.800000000,0.977426865,0.000000000,0.000000000,0.211274049
1.420833106,0.000000000,0.000000000,-0.496404632,-0.000000000,-0.000000000,9.800000000,0.977644837,0.000000000,0.000000000,0.210263105
1.429166438,0.000000000,0.000000000,-0.496404632,0.000000000,-0.000000000,9.800000000,0.978077643,0.000000000,0.000000000,0.208240542
1.433333104,0.000000000,0.000000000,-0.509184133,0.000000000,0.000000000,9.800000000,0.978297995,0.000000000,0.000000000,0.207202881
1.437499770,0.000000000,0.000000000,-0.509184133,0.000000000,0.000000000,9.800000000,0.978517245,0.000000000,0.000000000,0.206164986
1.441666436,0.000000000,0.000000000,-0.509184133,0.000000000,0.000000000,9.800000000,0.978735394,0.000000000,0.000000000,0.205126859
1.445833102,0.000000000,0.000000000,-0.521767333,0.000000000,0.000000000,9.800000000,0.978957792,0.000000000,0.000000000,0.204062837
1.454166434,0.000000000,0.000000000,-0.521767333,-0.000000000,0.000000000,9.800000000,0.979399117,0.000000000,0.000000000,0.201934073
1.458333100,0.000000000,0.000000000,-0.534149382,-0.000000000,-0.000000000,9.800000000,0.979623225,0.000000000,0.000000000,0.200844062
1.462499766,0.000000000,0.000000000,-0.534149382,-0.000000000,-0.000000000,9.800000000,0.979846120,0.000000000,0.000000000,0.199753802
1.466666432,0.000000000,0.000000000,-0.534149382,-0.000000000,0.000000000,9.800000000,0.980067801,0.000000000,0.000000000,0.198663295
1.470833098,0.000000000,0.000000000,-0.546325506,0.000000000,0.000000000,9.800000000,0.980293281,0.000000000,0.000000000,0.197547675
1.479166430,0.000000000,0.000000000,-0.546325506,-0.000000000,0.000000000,9.800000000,0.980740429,0.000000000,0.000000000,0.195315669
1.483333096,0.000000000,0.000000000,-0.558291012,0.000000000,0.000000000,9.800000000,0.980966939,0.000000000,0.000000000,0.194174832
1.487499762,0.000000000,0.000000000,-0.558291012,0.000000000,0.000000000,9.800000000,0.981192121,0.000000000,0.000000000,0.193033732
1.491666428,0.000000000,0.000000000,-0.558291012,-0.000000000,0.000000000,9.800000000,0.981415976,0.000000000,0.000000000,0.191892372
1.495833094,0.000000000,0.000000000,-0.570041285,-0.000000000,-0.000000000,9.800000000,0.981643172,0.000000000,0.000000000,0.190726721
1.504166426,0.000000000,0.000000000,-0.570041285,0.000000000,0.000000000,9.800000000,0.982093412,0.000000000,0.000000000,0.188394614
1.508333092,0.000000000,0.000000000,-0.581571797,0.000000000,0.000000000,9.800000000,0.982320951,0.000000000,0.000000000,0.187204564
1.512499758,0.000000000,0.000000000,-0.581571797,0.000000000,0.000000000,9.800000000,0.982547049,0.000000000,0.000000000,0.186014239
1.516666424,0.000000000,0.000000000,-0.581571797,0.000000000,-0.000000000,9.800000000,0.982771704,0.000000000,0.000000000,0.184823641
1.520833090,0.000000000,0.000000000,-0.592878103,0.000000000,-0.000000000,9.800000000,0.982999241,0.000000000,0.000000000,0.183609618
1.529166422,0.000000000,0.000000000,-0.592878103,0.000000000,-0.000000000,9.800000000,0.983449817,0.000000000,0.000000000,0.181180733
1.533333088,0.000000000,0.000000000,-0.603955842,0.000000000,0.000000000,9.800000000,0.983677007,0.000000000,0.000000000,0.179943172
1.537499754,0.000000000,0.000000000,-0.603955842,0.000000000,0.000000000,9.800000000,0.983902640,0.000000000,0.000000000,0.178705327
1.541666420,0.000000000,0.000000000,-0.603955842,0.000000000,0.000000000,9.800000000,0.984126716,0.000000000,0.000000000,0.177467200
1.545833086,0.000000000,0.000000000,-0.614800745,-0.000000000,-0.000000000,9.800000000,0.984353215,0.000000000,0.000000000,0.176206551
1.554166418,0.000000000,0.000000000,-0.614800745,0.000000000,-0.000000000,9.800000000,0.984801367,0.000000000,0.000000000,0.173684388
1.558333084,0.000000000,0.000000000,-0.625408631,0.000000000,0.000000000,9.800000000,0.985026831,0.000000000,0.000000000,0.172401109
1.562499750,0.000000000,0.000000000,-0.625408631,0.000000000,-0.000000000,9.800000000,0.985250622,0.000000000,0.000000000,0.171117538
1.566666416,0.000000000,0.000000000,-0.625408631,0.000000000,0.000000000,9.800000000,0.985472741,0.000000000,0.000000000,0.169833676
1.570833082,0.000000000,0.000000000,-0.635775409,0.000000000,0.000000000,9.800000000,0.985696826,0.000000000,0.000000000,0.168528237
1.579166414,0.000000000,0.000000000,-0.635775409,0.000000000,-0.000000000,9.800000000,0.986139809,0.000000000,0.000000000,0.165916475
1.583333080,0.000000000,0.000000000,-0.645897085,0.000000000,0.000000000,9.800000000,0.986362177,0.000000000,0.000000000,0.164589357
1.587499746,0.000000000,0.000000000,-0.645897085,0.000000000,0.000000000,9.800000000,0.986582758,0.000000000,0.000000000,0.163261941
1.591666412,0.000000000,0.000000000,-0.645897085,-0.000000000,0.000000000,9.800000000,0.986801553,0.000000000,0.000000000,0.161934230
1.595833078,0.000000000,0.000000000,-0.655769755,-0.000000000,0.000000000,9.800000000,0.987021865,0.000000000,0.000000000,0.160585924
1.604166410,0.000000000,0.000000000,-0.655769755,-0.000000000,0.000000000,9.800000000,0.987456960,0.000000000,0.000000000,0.157888415
1.608333076,0.000000000,0.000000000,-0.665389613,-0.000000000,0.000000000,9.800000000,0.987674881,0.000000000,0.000000000,0.156519423
1.612499742,0.000000000,0.000000000,-0.665389613,0.000000000,0.000000000,9.800000000,0.987890903,0.000000000,0.000000000,0.155150131
1.616666408,0.000000000,0.000000000,-0.665389613,0.000000000,0.000000000,9.800000000,0.988105028,0.000000000,0.000000000,0.153780540
1.620833074,0.000000000,0.000000000,-0.674752951,0.000000000,0.000000000,9.800000000,0.988320226,0.000000000,0.000000000,0.152391374
1.629166406,0.000000000,0.000000000,-0.674752951,-0.000000000,-0.000000000,9.800000000,0.988744763,0.000000000,0.000000000,0.149612143
1.633333072,0.000000000,0.000000000,-0.683856159,0.000000000,0.000000000,9.800000000,0.988956912,0.000000000,0.000000000,0.148203327
1.637499738,0.000000000,0.000000000,-0.683856159,0.000000000,0.000000000,9.800000000,0.989167054,0.000000000,0.000000000,0.146794210
1.641666404,0.000000000,0.000000000,-0.683856159,0.000000000,0.000000000,9.800000000,0.989375187,0.000000000,0.000000000,0.145384795
1.645833070,0.000000000,0.000000000,-0.692695727,-0.000000000,-0.000000000,9.800000000,0.989583964,0.000000000,0.000000000,0.143956861
1.654166402,0.000000000,0.000000000,-0.692695727,-0.000000000,-0.000000000,9.800000000,0.989995335,0.000000000,0.000000000,0.141100097
1.658333068,0.000000000,0.000000000,-0.701268248,0.000000000,0.000000000,9.800000000,0.990200422,0.000000000,0.000000000,0.139653588
1.662499734,0.000000000,0.000000000,-0.701268248,0.000000000,0.000000000,9.800000000,0.990403395,0.000000000,0.000000000,0.138206781
1.666666400,0.000000000,0.000000000,-0.701268248,-0.000000000,-0.000000000,9.800000000,0.990604255,0.000000000,0.000000000,0.136759679
1.670833066,0.000000000,0.000000000,-0.709570417,0.000000000,-0.000000000,9.800000000,0.990805341,0.000000000,0.000000000,0.135295148
1.679166398,0.000000000,0.000000000,-0.709570417,0.000000000,0.000000000,9.800000000,0.991201015,0.000000000,0.000000000,0.132365203
1.683333064,0.000000000,0.000000000,-0.717599033,-0.000000000,-0.000000000,9.800000000,0.991397793,0.000000000,0.000000000,0.130883212
1.687499730,0.000000000,0.000000000,-0.717599033,-0.000000000,-0.000000000,9.800000000,0.991592356,0.000000000,0.000000000,0.129400929
1.691666396,0.000000000,0.000000000,-0.717599033,0.000000000,-0.000000000,9.800000000,0.991784701,0.000000000,0.000000000,0.127918357
1.695833062,0.000000000,0.000000000,-0.725351002,0.000000000,0.000000000,9.800000000,0.991976873,0.000000000,0.000000000,0.126419478
1.704166394,0.000000000,0.000000000,-0.725351002,-0.000000000,-0.000000000,9.800000000,0.992354418,0.000000000,0.000000000,0.123420858
1.708333060,0.000000000,0.000000000,-0.732823333,-0.000000000,0.000000000,9.800000000,0.992541690,0.000000000,0.000000000,0.121905672
1.712499726,0.000000000,0.000000000,-0.732823333,-0.000000000,0.000000000,9.800000000,0.992726649,0.000000000,0.000000000,0.120390203
1.716666392,0.000000000,0.000000000,-0.732823333,-0.000000000,0.000000000,9.800000000,0.992909293,0.000000000,0.000000000,0.118874452
1.720833058,0.000000000,0.000000000,-0.740013148,0.000000000,0.000000000,9.800000000,0.993091381,0.000000000,0.000000000,0.117343549
1.729166390,0.000000000,0.000000000,-0.740013148,0.000000000,-0.000000000,9.800000000,0.993448475,0.000000000,0.000000000,0.114280911
1.733333056,0.000000000,0.000000000,-0.746917673,0.000000000,0.000000000,9.800000000,0.993625103,0.000000000,0.000000000,0.112734889
1.737499722,0.000000000,0.000000000,-0.746917673,0.000000000,0.000000000,9.800000000,0.993799324,0.000000000,0.000000000,0.111188595
1.741666388,0.000000000,0.000000000,-0.746917673,0.000000000,0.000000000,9.800000000,0.993971139,0.000000000,0.000000000,0.109642032
1.745833054,0.000000000,0.000000000,-0.753534247,0.000000000,0.000000000,9.800000000,0.994142037,0.000000000,0.000000000,0.108081499
1.754166386,0.000000000,0.000000000,-0.753534247,0.000000000,-0.000000000,9.800000000,0.994476483,0.000000000,0.000000000,0.104959638
1.758333052,0.000000000,0.000000000,-0.759860320,0.000000000,-0.000000000,9.800000000,0.994641392,0.000000000,0.000000000,0.103385209
1.762499718,0.000000000,0.000000000,-0.759860320,0.000000000,0.000000000,9.800000000,0.994803809,0.000000000,0.000000000,0.101810521
1.766666384,0.000000000,0.000000000,-0.759860320,0.000000000,0.000000000,9.800000000,0.994963732,0.000000000,0.000000000,0.100235578
1.770833050,0.000000000,0.000000000,-0.765893452,-0.000000000,-0.000000000,9.800000000,0.995122403,0.000000000,0.000000000,0.098647876
1.779166382,0.000000000,0.000000000,-0.765893452,-0.000000000,-0.000000000,9.800000000,0.995432142,0.000000000,0.000000000,0.095471722
1.783333048,0.000000000,0.000000000,-0.771631318,0.000000000,-0.000000000,9.800000000,0.995584333,0.000000000,0.000000000,0.093871378
1.787499714,0.000000000,0.000000000,-0.771631318,0.000000000,0.000000000,9.800000000,0.995733951,0.000000000,0.000000000,0.092270791
1.791666380,0.000000000,0.000000000,-0.771631318,0.000000000,0.000000000,9.800000000,0.995880996,0.000000000,0.000000000,0.090669965
1.795833046,0.000000000,0.000000000,-0.777071705,-0.000000000,-0.000000000,9.800000000,0.996026476,0.000000000,0.000000000,0.089057616
1.804166378,0.000000000,0.000000000,-0.777071705,-0.000000000,-0.000000000,9.800000000,0.996309605,0.000000000,0.000000000,0.085832222
1.808333044,0.000000000,0.000000000,-0.782212517,0.000000000,0.000000000,9.800000000,0.996448155,0.000000000,0.000000000,0.084208514
1.812499710,0.000000000,0.000000000,-0.782212517,-0.000000000,0.000000000,9.800000000,0.996584059,0.000000000,0.000000000,0.082584581
1.816666376,0.000000000,0.000000000,-0.782212517,0.000000000,0.000000000,9.800000000,0.996717316,0.000000000,0.000000000,0.080960430
1.820833042,0.000000000,0.000000000,-0.787051770,0.000000000,0.000000000,9.800000000,0.996848727,0.000000000,0.000000000,0.079326014
1.829166374,0.000000000,0.000000000,-0.787051770,-0.000000000,-0.000000000,9.800000000,0.997103506,0.000000000,0.000000000,0.076056545
1.833333040,0.000000000,0.000000000,-0.791587601,0.000000000,-0.000000000,9.800000000,0.997227578,0.000000000,0.000000000,0.074412079
1.837499706,0.000000000,0.000000000,-0.791587601,0.000000000,-0.000000000,9.800000000,0.997348938,0.000000000,0.000000000,0.072767410
1.841666372,0.000000000,0.000000000,-0.791587601,-0.000000000,-0.000000000,9.800000000,0.997467585,0.000000000,0.000000000,0.071122543
1.845833038,0.000000000,0.000000000,-0.795818259,0.000000000,0.000000000,9.800000000,0.997584132,0.000000000,0.000000000,0.069468690
1.854166370,0.000000000,0.000000000,-0.795818259,0.000000000,0.000000000,9.800000000,0.997808999,0.000000000,0.000000000,0.066160416
1.858333036,0.000000000,0.000000000,-0.799742115,0.000000000,0.000000000,9.800000000,0.997917846,0.000000000,0.000000000,0.064497847
1.862499702,0.000000000,0.000000000,-0.799742115,0.000000000,0.000000000,9.800000000,0.998023923,0.000000000,0.000000000,0.062835098
1.866666368,0.000000000,0.000000000,-0.799742115,0.000000000,0.000000000,9.800000000,0.998127229,0.000000000,0.000000000,0.061172175
1.870833034,0.000000000,0.000000000,-0.803357654,0.000000000,-0.000000000,9.800000000,0.998228212,0.000000000,0.000000000,0.059501563
1.879166366,0.000000000,0.000000000,-0.803357654,0.000000000,-0.000000000,9.800000000,0.998421791,0.000000000,0.000000000,0.056159843
1.883333032,0.000000000,0.000000000,-0.806663484,0.000000000,0.000000000,9.800000000,0.998514760,0.000000000,0.000000000,0.054481868
1.887499698,0.000000000,0.000000000,-0.806663484,0.000000000,0.000000000,9.800000000,0.998604909,0.000000000,0.000000000,0.052803740
1.891666364,0.000000000,0.000000000,-0.806663484,0.000000000,0.000000000,9.800000000,0.998692238,0.000000000,0.000000000,0.051125462
1.895833030,0.000000000,0.000000000,-0.809658330,-0.000000000,0.000000000,9.800000000,0.998777055,0.000000000,0.000000000,0.049440808
1.904166362,0.000000000,0.000000000,-0.809658330,-0.000000000,0.000000000,9.800000000,0.998938164,0.000000000,0.000000000,0.046071083
1.908333028,0.000000000,0.000000000,-0.812341038,0.000000000,-0.000000000,9.800000000,0.999014703,0.000000000,0.000000000,0.044380438
1.912499694,0.000000000,0.000000000,-0.812341038,0.000000000,-0.000000000,9.800000000,0.999088381,0.000000000,0.000000000,0.042689665
1.916666360,0.000000000,0.000000000,-0.812341038,0.000000000,-0.000000000,9.800000000,0.999159197,0.000000000,0.000000000,0.040998771
1.920833026,0.000000000,0.000000000,-0.814710573,-0.000000000,-0.000000000,9.800000000,0.999227345,0.000000000,0.000000000,0.039302826
1.929166358,0.000000000,0.000000000,-0.814710573,0.000000000,-0.000000000,9.800000000,0.999355006,0.000000000,0.000000000,0.035910603
1.933333024,0.000000000,0.000000000,-0.816766021,-0.000000000,0.000000000,9.800000000,0.999414665,0.000000000,0.000000000,0.034210053
1.937499690,0.000000000,0.000000000,-0.816766021,-0.000000000,0.000000000,9.800000000,0.999471430,0.000000000,0.000000000,0.032509405
1.941666356,0.000000000,0.000000000,-0.816766021,0.000000000,0.000000000,9.800000000,0.999525300,0.000000000,0.000000000,0.030808663
1.945833022,0.000000000,0.000000000,-0.818506591,-0.000000000,0.000000000,9.800000000,0.999576383,0.000000000,0.000000000,0.029104206
1.954166354,0.000000000,0.000000000,-0.818506591,0.000000000,0.000000000,9.800000000,0.999669828,0.000000000,0.000000000,0.025695045
1.958333020,0.000000000,0.000000000,-0.819931610,0.000000000,0.000000000,9.800000000,0.999712261,0.000000000,0.000000000,0.023987382
1.962499686,0.000000000,0.000000000,-0.819931610,0.000000000,0.000000000,9.800000000,0.999751778,0.000000000,0.000000000,0.022279648
1.966666352,0.000000000,0.000000000,-0.819931610,0.000000000,0.000000000,9.800000000,0.999788377,0.000000000,0.000000000,0.020571850
1.970833018,0.000000000,0.000000000,-0.821040531,-0.000000000,0.000000000,9.800000000,0.999822103,0.000000000,0.000000000,0.018861682
1.979166350,0.000000000,0.000000000,-0.821040531,-0.000000000,-0.000000000,9.800000000,0.999880778,0.000000000,0.000000000,0.015441185
1.983333016,0.000000000,0.000000000,-0.821832925,0.000000000,0.000000000,9.800000000,0.999905750,0.000000000,0.000000000,0.013729216
1.987499682,0.000000000,0.000000000,-0.821832925,0.000000000,0.000000000,9.800000000,0.999927791,0.000000000,0.000000000,0.012017206
1.991666348,0.000000000,0.000000000,-0.821832925,-0.000000000,0.000000000,9.800000000,0.999946900,0.000000000,0.000000000,0.010305161
1.995833014,0.000000000,0.000000000,-0.822308487,0.000000000,0.000000000,9.800000000,0.999963087,0.000000000,0.000000000,0.008592096
2.004166346,0.000000000,0.000000000,-0.822308487,0.000000000,0.000000000,9.800000000,0.999986657,0.000000000,0.000000000,0.005165894
2.008333012,0.000000000,0.000000000,-0.822467033,0.000000000,-0.000000000,9.800000000,0.999994040,0.000000000,0.000000000,0.003452437
2.012499678,0.000000000,0.000000000,-0.822467033,0.000000000,0.000000000,9.800000000,0.999998488,0.000000000,0.000000000,0.001738970
2.016666344,0.000000000,0.000000000,-0.822467033,0.000000000,0.000000000,9.800000000,1.000000000,0.000000000,0.000000000,0.000025499
2.020833010,0.000000000,0.000000000,-0.822308503,-0.000000000,-0.000000000,9.800000000,0.999998576,0.000000000,0.000000000,-0.001687643
2.029166342,0.000000000,0.000000000,-0.822308503,-0.000000000,-0.000000000,9.800000000,0.999986924,0.000000000,0.000000000,-0.005113907
2.033333008,0.000000000,0.000000000,-0.821832958,0.000000000,0.000000000,9.800000000,0.999976702,0.000000000,0.000000000,-0.006826028
2.037499674,0.000000000,0.000000000,-0.821832958,0.000000000,0.000000000,9.800000000,0.999963550,0.000000000,0.000000000,-0.008538129
2.041666340,0.000000000,0.000000000,-0.821832958,0.000000000,0.000000000,9.800000000,0.999947465,0.000000000,0.000000000,-0.010250204
2.045833006,0.000000000,0.000000000,-0.821040580,0.000000000,-0.000000000,9.800000000,0.999928469,0.000000000,0.000000000,-0.011960600
2.054166338,0.000000000,0.000000000,-0.821040580,-0.000000000,-0.000000000,9.800000000,0.999881701,0.000000000,0.000000000,-0.015381280
2.058333004,0.000000000,0.000000000,-0.819931675,-0.000000000,0.000000000,9.800000000,0.999853968,0.000000000,0.000000000,-0.017089246
2.062499670,0.000000000,0.000000000,-0.819931675,0.000000000,0.000000000,9.800000000,0.999823318,0.000000000,0.000000000,-0.018797161
2.066666336,0.000000000,0.000000000,-0.819931675,-0.000000000,-0.000000000,9.800000000,0.999789750,0.000000000,0.000000000,-0.020505022
2.070833002,0.000000000,0.000000000,-0.818506672,-0.000000000,0.000000000,9.800000000,0.999753331,0.000000000,0.000000000,-0.022209855
2.079166334,0.000000000,0.000000000,-0.818506672,-0.000000000,0.000000000,9.800000000,0.999671771,0.000000000,0.000000000,-0.025619321
2.083333000,0.000000000,0.000000000,-0.816766118,0.000000000,0.000000000,9.800000000,0.999626730,0.000000000,0.000000000,-0.027320321
2.087499666,0.000000000,0.000000000,-0.816766118,0.000000000,0.000000000,9.800000000,0.999578795,0.000000000,0.000000000,-0.029021241
2.091666332,0.000000000,0.000000000,-0.816766118,0.000000000,0.000000000,9.800000000,0.999527966,0.000000000,0.000000000,-0.030722077
2.095832998,0.000000000,0.000000000,-0.814710686,0.000000000,0.000000000,9.800000000,0.999474381,0.000000000,0.000000000,-0.032418545
2.104166330,0.000000000,0.000000000,-0.814710686,0.000000000,0.000000000,9.800000000,0.999358573,0.000000000,0.000000000,-0.035811194
2.108332996,0.000000000,0.000000000,-0.812341167,0.000000000,0.000000000,9.800000000,0.999296536,0.000000000,0.000000000,-0.037502434
2.112499662,0.000000000,0.000000000,-0.812341167,0.000000000,0.000000000,9.800000000,0.999231637,0.000000000,0.000000000,-0.039193566
2.116666328,0.000000000,0.000000000,-0.812341167,0.000000000,0.000000000,9.800000000,0.999163876,0.000000000,0.000000000,-0.040884586
2.120832994,0.000000000,0.000000000,-0.809658476,-0.000000000,0.000000000,9.800000000,0.999093491,0.000000000,0.000000000,-0.042569905
2.129166326,0.000000000,0.000000000,-0.809658476,-0.000000000,0.000000000,9.800000000,0.998944193,0.000000000,0.000000000,-0.045940175
2.133332992,0.000000000,0.000000000,-0.806663646,-0.000000000,0.000000000,9.800000000,0.998865578,0.000000000,0.000000000,-0.047618884
2.137499658,0.000000000,0.000000000,-0.806663646,-0.000000000,0.000000000,9.800000000,0.998784141,0.000000000,0.000000000,-0.049297458
2.141666324,0.000000000,0.000000000,-0.806663646,-0.000000000,0.000000000,9.800000000,0.998699884,0.000000000,0.000000000,-0.050975893
2.145832990,0.000000000,0.000000000,-0.803357831,-0.000000000,-0.000000000,9.800000000,0.998613169,0.000000000,0.000000000,-0.052647307
2.154166322,0.000000000,0.000000000,-0.803357831,0.000000000,0.000000000,9.800000000,0.998431347,0.000000000,0.000000000,-0.055989687
2.158332988,0.000000000,0.000000000,-0.799742308,0.000000000,0.000000000,9.800000000,0.998336675,0.000000000,0.000000000,-0.057653125
2.162499654,0.000000000,0.000000000,-0.799742308,0.000000000,-0.000000000,9.800000000,0.998239232,0.000000000,0.000000000,-0.059316402
2.166666320,0.000000000,0.000000000,-0.799742308,0.000000000,0.000000000,9.800000000,0.998139018,0.000000000,0.000000000,-0.060979515
2.170832986,0.000000000,0.000000000,-0.795818468,-0.000000000,0.000000000,9.800000000,0.998036545,0.000000000,0.000000000,-0.062634300
2.179166318,0.000000000,0.000000000,-0.795818468,-0.000000000,0.000000000,9.800000000,0.997823369,0.000000000,0.000000000,-0.065943349
2.183332984,0.000000000,0.000000000,-0.791587825,0.000000000,0.000000000,9.800000000,0.997713262,0.000000000,0.000000000,-0.067588810
2.187499650,0.000000000,0.000000000,-0.791587825,0.000000000,0.000000000,9.800000000,0.997600442,0.000000000,0.000000000,-0.069234087
2.191666316,0.000000000,0.000000000,-0.791587825,0.000000000,0.000000000,9.800000000,0.997484908,0.000000000,0.000000000,-0.070879176
2.195832982,0.000000000,0.000000000,-0.787052010,0.000000000,0.000000000,9.800000000,0.997367348,0.000000000,0.000000000,-0.072514647
2.204166314,0.000000000,0.000000000,-0.787052010,0.000000000,0.000000000,9.800000000,0.997124182,0.000000000,0.000000000,-0.075785001
2.208332980,0.000000000,0.000000000,-0.782212772,-0.000000000,-0.000000000,9.800000000,0.996999358,0.000000000,0.000000000,-0.077409823
2.212499646,0.000000000,0.000000000,-0.782212772,-0.000000000,-0.000000000,9.800000000,0.996871886,0.000000000,0.000000000,-0.079034439
2.216666312,0.000000000,0.000000000,-0.782212772,-0.000000000,-0.000000000,9.800000000,0.996741767,0.000000000,0.000000000,-0.080658846
2.220832978,0.000000000,0.000000000,-0.777071976,0.000000000,0.000000000,9.800000000,0.996609883,0.000000000,0.000000000,-0.082272364
2.229166310,0.000000000,0.000000000,-0.777071976,0.000000000,0.000000000,9.800000000,0.996338278,0.000000000,0.000000000,-0.085498750
2.233332976,0.000000000,0.000000000,-0.771631604,-0.000000000,-0.000000000,9.800000000,0.996199546,0.000000000,0.000000000,-0.087100318
2.237499642,0.000000000,0.000000000,-0.771631604,0.000000000,-0.000000000,9.800000000,0.996058239,0.000000000,0.000000000,-0.088701661
2.241666308,0.000000000,0.000000000,-0.771631604,0.000000000,-0.000000000,9.800000000,0.995914358,0.000000000,0.000000000,-0.090302775
2.245832974,0.000000000,0.000000000,-0.765893753,0.000000000,0.000000000,9.800000000,0.995769002,0.000000000,0.000000000,-0.091891752
2.254166306,0.000000000,0.000000000,-0.765893753,-0.000000000,0.000000000,9.800000000,0.995470685,0.000000000,0.000000000,-0.095069000
2.258332972,0.000000000,0.000000000,-0.759860636,-0.000000000,0.000000000,9.800000000,0.995318940,0.000000000,0.000000000,-0.096644753
2.262499638,0.000000000,0.000000000,-0.759860636,-0.000000000,0.000000000,9.800000000,0.995164700,0.000000000,0.000000000,-0.098220263
2.266666304,0.000000000,0.000000000,-0.759860636,-0.000000000,-0.000000000,9.800000000,0.995007966,0.000000000,0.000000000,-0.099795528
2.270832970,0.000000000,0.000000000,-0.753534579,0.000000000,-0.000000000,9.800000000,0.994850075,0.000000000,0.000000000,-0.101357431
2.279166302,0.000000000,0.000000000,-0.753534579,-0.000000000,-0.000000000,9.800000000,0.994526937,0.000000000,0.000000000,-0.104480484
2.283332968,0.000000000,0.000000000,-0.746918019,0.000000000,0.000000000,9.800000000,0.994363153,0.000000000,0.000000000,-0.106027919
2.287499634,0.000000000,0.000000000,-0.746918019,0.000000000,0.000000000,9.800000000,0.994196962,0.000000000,0.000000000,-0.107575097
2.291666300,0.000000000,0.000000000,-0.746918019,0.000000000,-0.000000000,9.800000000,0.994028363,0.000000000,0.000000000,-0.109122016
2.295832966,0.000000000,0.000000000,-0.740013508,-0.000000000,-0.000000000,9.800000000,0.993858949,0.000000000,0.000000000,-0.110654373
2.304166298,0.000000000,0.000000000,-0.740013508,-0.000000000,0.000000000,9.800000000,0.993513034,0.000000000,0.000000000,-0.113718296
2.308332964,0.000000000,0.000000000,-0.732823709,0.000000000,-0.000000000,9.800000000,0.993338261,0.000000000,0.000000000,-0.115234975
2.312499630,0.000000000,0.000000000,-0.732823709,0.000000000,-0.000000000,9.800000000,0.993161172,0.000000000,0.000000000,-0.116751386
2.316666296,0.000000000,0.000000000,-0.732823709,0.000000000,-0.000000000,9.800000000,0.992981769,0.000000000,0.000000000,-0.118267524
2.320832962,0.000000000,0.000000000,-0.725351391,-0.000000000,0.000000000,9.800000000,0.992801915,0.000000000,0.000000000,-0.119767931
2.329166294,0.000000000,0.000000000,-0.725351391,-0.000000000,0.000000000,9.800000000,0.992435407,0.000000000,0.000000000,-0.122767922
2.333332960,0.000000000,0.000000000,-0.717599437,-0.000000000,0.000000000,9.800000000,0.992250760,0.000000000,0.000000000,-0.124251474
2.337499626,0.000000000,0.000000000,-0.717599437,-0.000000000,0.000000000,9.800000000,0.992063896,0.000000000,0.000000000,-0.125734748
2.341666292,0.000000000,0.000000000,-0.717599437,-0.000000000,0.000000000,9.800000000,0.991874814,0.000000000,0.000000000,-0.127217741
2.345832958,0.000000000,0.000000000,-0.709570835,-0.000000000,-0.000000000,9.800000000,0.991685668,0.000000000,0.000000000,-0.128683862
2.354166290,0.000000000,0.000000000,-0.709570835,0.000000000,-0.000000000,9.800000000,0.991300874,0.000000000,0.000000000,-0.131615259
2.358332956,0.000000000,0.000000000,-0.701268680,-0.000000000,0.000000000,9.800000000,0.991107530,0.000000000,0.000000000,-0.133063385
2.362499622,0.000000000,0.000000000,-0.701268680,0.000000000,0.000000000,9.800000000,0.990912070,0.000000000,0.000000000,-0.134511227
2.366666288,0.000000000,0.000000000,-0.701268680,0.000000000,0.000000000,9.800000000,0.990714495,0.000000000,0.000000000,-0.135958781
2.370832954,0.000000000,0.000000000,-0.692696173,0.000000000,0.000000000,9.800000000,0.990517259,0.000000000,0.000000000,-0.137388356
2.379166286,0.000000000,0.000000000,-0.692696173,0.000000000,0.000000000,9.800000000,0.990116599,0.000000000,0.000000000,-0.140246644
2.383332952,0.000000000,0.000000000,-0.683856618,0.000000000,0.000000000,9.800000000,0.989915784,0.000000000,0.000000000,-0.141657121
2.387499618,0.000000000,0.000000000,-0.683856618,0.000000000,0.000000000,9.800000000,0.989712961,0.000000000,0.000000000,-0.143067311
2.391666284,0.000000000,0.000000000,-0.674753424,0.000000000,0.000000000,9.800000000,0.989510868,0.000000000,0.000000000,-0.144458445
2.395832950,0.000000000,0.000000000,-0.674753424,0.000000000,-0.000000000,9.800000000,0.989306820,0.000000000,0.000000000,-0.145849293
2.404166282,0.000000000,0.000000000,-0.674753424,0.000000000,-0.000000000,9.800000000,0.988892859,0.000000000,0.000000000,-0.148630121
2.408332948,0.000000000,0.000000000,-0.665390099,0.000000000,-0.000000000,9.800000000,0.988685874,0.000000000,0.000000000,-0.150000810
2.412499614,0.000000000,0.000000000,-0.665390099,0.000000000,-0.000000000,9.800000000,0.988476988,0.000000000,0.000000000,-0.151371211
2.416666280,0.000000000,0.000000000,-0.665390099,-0.000000000,-0.000000000,9.800000000,0.988266204,0.000000000,0.000000000,-0.152741320
2.420832946,0.000000000,0.000000000,-0.655770254,0.000000000,-0.000000000,9.800000000,0.988056608,0.000000000,0.000000000,-0.154091335
2.429166278,0.000000000,0.000000000,-0.655770254,0.000000000,-0.000000000,9.800000000,0.987631885,0.000000000,0.000000000,-0.156790498
2.433332944,0.000000000,0.000000000,-0.645897597,-0.000000000,0.000000000,9.800000000,0.987420010,0.000000000,0.000000000,-0.158119332
2.437499610,0.000000000,0.000000000,-0.645897597,0.000000000,0.000000000,9.800000000,0.987206348,0.000000000,0.000000000,-0.159447881
2.441666276,0.000000000,0.000000000,-0.645897597,0.000000000,0.000000000,9.800000000,0.986990898,0.000000000,0.000000000,-0.160776140
2.445832942,0.000000000,0.000000000,-0.635775934,-0.000000000,-0.000000000,9.800000000,0.986777079,0.000000000,0.000000000,-0.162083301
2.454166274,0.000000000,0.000000000,-0.635775934,0.000000000,-0.000000000,9.800000000,0.986344248,0.000000000,0.000000000,-0.164696767
2.458332940,0.000000000,0.000000000,-0.625409168,0.000000000,0.000000000,9.800000000,0.986128821,0.000000000,0.000000000,-0.165981770
2.462499606,0.000000000,0.000000000,-0.625409168,-0.000000000,0.000000000,9.800000000,0.985911721,0.000000000,0.000000000,-0.167266491
2.466666272,0.000000000,0.000000000,-0.625409168,0.000000000,0.000000000,9.800000000,0.985692946,0.000000000,0.000000000,-0.168550928
2.470832938,0.000000000,0.000000000,-0.614801294,-0.000000000,-0.000000000,9.800000000,0.985476252,0.000000000,0.000000000,-0.169813300
2.479166270,0.000000000,0.000000000,-0.614801294,0.000000000,-0.000000000,9.800000000,0.985038013,0.000000000,0.000000000,-0.172337207
2.483332936,0.000000000,0.000000000,-0.603956403,-0.000000000,0.000000000,9.800000000,0.984820391,0.000000000,0.000000000,-0.173576486
2.487499602,0.000000000,0.000000000,-0.603956403,-0.000000000,0.000000000,9.800000000,0.984601211,0.000000000,0.000000000,-0.174815491
2.491666268,0.000000000,0.000000000,-0.603956403,-0.000000000,0.000000000,9.800000000,0.984380471,0.000000000,0.000000000,-0.176054220
2.495832934,0.000000000,0.000000000,-0.592878676,0.000000000,0.000000000,9.800000000,0.984162264,0.000000000,0.000000000,-0.177269956
2.504166266,0.000000000,0.000000000,-0.592878676,0.000000000,0.000000000,9.800000000,0.983721347,0.000000000,0.000000000,-0.179700616
2.508332932,0.000000000,0.000000000,-0.581572382,0.000000000,0.000000000,9.800000000,0.983502898,0.000000000,0.000000000,-0.180892369
2.512499598,0.000000000,0.000000000,-0.581572382,0.000000000,0.000000000,9.800000000,0.983283006,0.000000000,0.000000000,-0.182083857
2.516666264,0.000000000,0.000000000,-0.581572382,0.000000000,0.000000000,9.800000000,0.983061669,0.000000000,0.000000000,-0.183275077
2.520832930,0.000000000,0.000000000,-0.570041881,0.000000000,-0.000000000,9.800000000,0.982843321,0.000000000,0.000000000,-0.184442419
2.529166262,0.000000000,0.000000000,-0.570041881,0.000000000,0.000000000,9.800000000,0.982402466,0.000000000,0.000000000,-0.186776321
2.533332928,0.000000000,0.000000000,-0.558291619,-0.000000000,0.000000000,9.800000000,0.982184561,0.000000000,0.000000000,-0.187918834
2.537499594,0.000000000,0.000000000,-0.558291619,0.000000000,0.000000000,9.800000000,0.981965327,0.000000000,0.000000000,-0.189061092
2.541666260,0.000000000,0.000000000,-0.558291619,-0.000000000,0.000000000,9.800000000,0.981744764,0.000000000,0.000000000,-0.190203095
2.545832926,0.000000000,0.000000000,-0.546326124,0.000000000,0.000000000,9.800000000,0.981527643,0.000000000,0.000000000,-0.191320373
2.554166258,0.000000000,0.000000000,-0.546326124,0.000000000,-0.000000000,9.800000000,0.981089587,0.000000000,0.000000000,-0.193554185
2.558332924,0.000000000,0.000000000,-0.534150010,0.000000000,0.000000000,9.800000000,0.980873590,0.000000000,0.000000000,-0.194645833
2.562499590,0.000000000,0.000000000,-0.534150010,-0.000000000,0.000000000,9.800000000,0.980656378,0.000000000,0.000000000,-0.195737241
2.566666256,0.000000000,0.000000000,-0.534150010,0.000000000,0.000000000,9.800000000,0.980437952,0.000000000,0.000000000,-0.196828406
2.570832922,0.000000000,0.000000000,-0.521767972,0.000000000,0.000000000,9.800000000,0.980223418,0.000000000,0.000000000,-0.197894041
2.579166254,0.000000000,0.000000000,-0.521767972,0.000000000,0.000000000,9.800000000,0.979790873,0.000000000,0.000000000,-0.200024610
2.583332920,0.000000000,0.000000000,-0.509184782,0.000000000,-0.000000000,9.800000000,0.979578136,0.000000000,0.000000000,-0.201063861
2.587499586,0.000000000,0.000000000,-0.509184782,0.000000000,-0.000000000,9.800000000,0.979364296,0.000000000,0.000000000,-0.202102885
2.591666252,0.000000000,0.000000000,-0.509184782,0.000000000,-0.000000000,9.800000000,0.979149354,0.000000000,0.000000000,-0.203141683
2.595832918,0.000000000,0.000000000,-0.496405292,-0.000000000,0.000000000,9.800000000,0.978938746,0.000000000,0.000000000,-0.204154188
2.604166250,0.000000000,0.000000000,-0.496405292,-0.000000000,0.000000000,9.800000000,0.978514388,0.000000000,0.000000000,-0.206178543
2.608332916,0.000000000,0.000000000,-0.483434428,0.000000000,0.000000000,9.800000000,0.978306239,0.000000000,0.000000000,-0.207163954
2.612499582,0.000000000,0.000000000,-0.483434428,0.000000000,0.000000000,9.800000000,0.978097096,0.000000000,0.000000000,-0.208149154
2.616666248,0.000000000,0.000000000,-0.483434428,0.000000000,0.000000000,9.800000000,0.977886962,0.000000000,0.000000000,-0.209134144
2.620832914,0.000000000,0.000000000,-0.470277190,-0.000000000,0.000000000,9.800000000,0.977681594,0.000000000,0.000000000,-0.210092122
2.629166246,0.000000000,0.000000000,-0.470277190,-0.000000000,-0.000000000,9.800000000,0.977268045,0.000000000,0.000000000,-0.212007473
2.633332912,0.000000000,0.000000000,-0.456938653,0.000000000,0.000000000,9.800000000,0.977065780,0.000000000,0.000000000,-0.212937692
2.637499578,0.000000000,0.000000000,-0.456938653,0.000000000,0.000000000,9.800000000,0.976862631,0.000000000,0.000000000,-0.213867719
2.641666244,0.000000000,0.000000000,-0.456938653,0.000000000,0.000000000,9.800000000,0.976658595,0.000000000,0.000000000,-0.214797551
2.645832910,0.000000000,0.000000000,-0.443423956,0.000000000,0.000000000,9.800000000,0.976459749,0.000000000,0.000000000,-0.215699697
2.654166242,0.000000000,0.000000000,-0.443423956,-0.000000000,0.000000000,9.800000000,0.976059556,0.000000000,0.000000000,-0.217503434
2.658332908,0.000000000,0.000000000,-0.429738312,0.000000000,-0.000000000,9.800000000,0.975864436,0.000000000,0.000000000,-0.218377201
2.662499574,0.000000000,0.000000000,-0.429738312,0.000000000,-0.000000000,9.800000000,0.975668535,0.000000000,0.000000000,-0.219250793
2.666666240,0.000000000,0.000000000,-0.429738312,0.000000000,-0.000000000,9.800000000,0.975471851,0.000000000,0.000000000,-0.220124209
2.670832906,0.000000000,0.000000000,-0.415886995,-0.000000000,0.000000000,9.800000000,0.975280763,0.000000000,0.000000000,-0.220969306
2.679166238,0.000000000,0.000000000,-0.415886995,-0.000000000,0.000000000,9.800000000,0.974896389,0.000000000,0.000000000,-0.222659000
2.683332904,0.000000000,0.000000000,-0.401875345,-0.000000000,0.000000000,9.800000000,0.974709628,0.000000000,0.000000000,-0.223475145
2.687499570,0.000000000,0.000000000,-0.401875345,-0.000000000,0.000000000,9.800000000,0.974522184,0.000000000,0.000000000,-0.224291132
2.691666236,0.000000000,0.000000000,-0.401875345,-0.000000000,0.000000000,9.800000000,0.974334057,0.000000000,0.000000000,-0.225106963
2.695832902,0.000000000,0.000000000,-0.387708766,-0.000000000,-0.000000000,9.800000000,0.974151915,0.000000000,0.000000000,-0.225893885
2.704166234,0.000000000,0.000000000,-0.387708766,0.000000000,-0.000000000,9.800000000,0.973785723,0.000000000,0.000000000,-0.227467286
2.708332900,0.000000000,0.000000000,-0.373392717,0.000000000,-0.000000000,9.800000000,0.973608481,0.000000000,0.000000000,-0.228224726
2.712499566,0.000000000,0.000000000,-0.373392717,0.000000000,-0.000000000,9.800000000,0.973430650,0.000000000,0.000000000,-0.228982028
2.716666232,0.000000000,0.000000000,-0.373392717,0.000000000,0.000000000,9.800000000,0.973252230,0.000000000,0.000000000,-0.229739192
2.720832898,0.000000000,0.000000000,-0.358932718,0.000000000,0.000000000,9.800000000,0.973080165,0.000000000,0.000000000,-0.230466903
2.729166230,0.000000000,0.000000000,-0.358932718,0.000000000,0.000000000,9.800000000,0.972734401,0.000000000,0.000000000,-0.231921937
2.733332896,0.000000000,0.000000000,-0.344334344,0.000000000,0.000000000,9.800000000,0.972567779,0.000000000,0.000000000,-0.232619681
2.737499562,0.000000000,0.000000000,-0.344334344,0.000000000,-0.000000000,9.800000000,0.972400656,0.000000000,0.000000000,-0.233317306
2.741666228,0.000000000,0.000000000,-0.344334344,0.000000000,0.000000000,9.800000000,0.972233032,0.000000000,0.000000000,-0.234014810
2.745832894,0.000000000,0.000000000,-0.329603222,-0.000000000,0.000000000,9.800000000,0.972072111,0.000000000,0.000000000,-0.234682361
2.754166226,0.000000000,0.000000000,-0.329603222,-0.000000000,0.000000000,9.800000000,0.971748894,0.000000000,0.000000000,-0.236017131
2.758332892,0.000000000,0.000000000,-0.314745033,0.000000000,-0.000000000,9.800000000,0.971593925,0.000000000,0.000000000,-0.236654274
2.762499558,0.000000000,0.000000000,-0.314745033,-0.000000000,-0.000000000,9.800000000,0.971438537,0.000000000,0.000000000,-0.237291316
2.766666224,0.000000000,0.000000000,-0.314745033,0.000000000,0.000000000,9.800000000,0.971282732,0.000000000,0.000000000,-0.237928255
2.770832890,0.000000000,0.000000000,-0.299765503,0.000000000,0.000000000,9.800000000,0.971133954,0.000000000,0.000000000,-0.238534786
2.779166222,0.000000000,0.000000000,-0.299765503,0.000000000,0.000000000,9.800000000,0.970835261,0.000000000,0.000000000,-0.239747568
2.783332888,0.000000000,0.000000000,-0.284670407,0.000000000,0.000000000,9.800000000,0.970692905,0.000000000,0.000000000,-0.240323292
2.787499554,0.000000000,0.000000000,-0.284670407,0.000000000,0.000000000,9.800000000,0.970550207,0.000000000,0.000000000,-0.240898932
2.791666220,0.000000000,0.000000000,-0.284670407,0.000000000,0.000000000,9.800000000,0.970407168,0.000000000,0.000000000,-0.241474488
2.795832886,0.000000000,0.000000000,-0.269465566,0.000000000,0.000000000,9.800000000,0.970271455,0.000000000,0.000000000,-0.242019223
2.804166218,0.000000000,0.000000000,-0.269465566,0.000000000,0.000000000,9.800000000,0.969999110,0.000000000,0.000000000,-0.243108465
2.808332884,0.000000000,0.000000000,-0.254156841,-0.000000000,0.000000000,9.800000000,0.969870250,0.000000000,0.000000000,-0.243622039
2.812499550,0.000000000,0.000000000,-0.254156841,-0.000000000,0.000000000,9.800000000,0.969741118,0.000000000,0.000000000,-0.244135544
2.816666216,0.000000000,0.000000000,-0.254156841,-0.000000000,0.000000000,9.800000000,0.969611714,0.000000000,0.000000000,-0.244648982
2.820832882,0.000000000,0.000000000,-0.238750134,0.000000000,0.000000000,9.800000000,0.969489907,0.000000000,0.000000000,-0.245131232
2.829166214,0.000000000,0.000000000,-0.238750134,0.000000000,0.000000000,9.800000000,0.969245572,0.000000000,0.000000000,-0.246095552
2.833332880,0.000000000,0.000000000,-0.223251384,0.000000000,0.000000000,9.800000000,0.969131007,0.000000000,0.000000000,-0.246546328
2.837499546,0.000000000,0.000000000,-0.223251384,0.000000000,0.000000000,9.800000000,0.969016231,0.000000000,0.000000000,-0.246997051
2.841666212,0.000000000,0.000000000,-0.223251384,0.000000000,0.000000000,9.800000000,0.968901246,0.000000000,0.000000000,-0.247447721
2.845832878,0.000000000,0.000000000,-0.207666566,-0.000000000,0.000000000,9.800000000,0.968794100,0.000000000,0.000000000,-0.247866882
2.854166210,0.000000000,0.000000000,-0.207666566,-0.000000000,0.000000000,9.800000000,0.968579264,0.000000000,0.000000000,-0.248705064
2.858332876,0.000000000,0.000000000,-0.192001689,-0.000000000,0.000000000,9.800000000,0.968479704,0.000000000,0.000000000,-0.249092480
2.862499542,0.000000000,0.000000000,-0.192001689,-0.000000000,-0.000000000,9.800000000,0.968379988,0.000000000,0.000000000,-0.249479855
2.866666208,0.000000000,0.000000000,-0.192001689,-0.000000000,-0.000000000,9.800000000,0.968280118,0.000000000,0.000000000,-0.249867190
2.870832874,0.000000000,0.000000000,-0.176262791,-0.000000000,0.000000000,9.800000000,0.968188298,0.000000000,0.000000000,-0.250222740
2.879166206,0.000000000,0.000000000,-0.176262791,-0.000000000,0.000000000,9.800000000,0.968004266,0.000000000,0.000000000,-0.250933737
2.883332872,0.000000000,0.000000000,-0.160455941,0.000000000,0.000000000,9.800000000,0.967920329,0.000000000,0.000000000,-0.251257310
2.887499538,0.000000000,0.000000000,-0.160455941,0.000000000,0.000000000,9.800000000,0.967836284,0.000000000,0.000000000,-0.251580856
2.891666204,0.000000000,0.000000000,-0.160455941,0.000000000,0.000000000,9.800000000,0.967752131,0.000000000,0.000000000,-0.251904373
2.895832870,0.000000000,0.000000000,-0.144587232,0.000000000,0.000000000,9.800000000,0.967676207,0.000000000,0.000000000,-0.252195871
2.904166202,0.000000000,0.000000000,-0.144587232,0.000000000,0.000000000,9.800000000,0.967524097,0.000000000,0.000000000,-0.252778799
2.908332868,0.000000000,0.000000000,-0.128662782,-0.000000000,-0.000000000,9.800000000,0.967456306,0.000000000,0.000000000,-0.253038132
2.912499534,0.000000000,0.000000000,-0.128662782,-0.000000000,-0.000000000,9.800000000,0.967388445,0.000000000,0.000000000,-0.253297447
2.916666200,0.000000000,0.000000000,-0.128662782,-0.000000000,-0.000000000,9.800000000,0.967320514,0.000000000,0.000000000,-0.253556744
2.920832866,0.000000000,0.000000000,-0.112688731,0.000000000,0.000000000,9.800000000,0.967260961,0.000000000,0.000000000,-0.253783833
2.929166198,0.000000000,0.000000000,-0.112688731,0.000000000,0.000000000,9.800000000,0.967141693,0.000000000,0.000000000,-0.254237969
2.933332864,0.000000000,0.000000000,-0.096671235,0.000000000,0.000000000,9.800000000,0.967090471,0.000000000,0.000000000,-0.254432745
2.937499530,0.000000000,0.000000000,-0.096671235,0.000000000,0.000000000,9.800000000,0.967039209,0.000000000,0.000000000,-0.254627510
2.941666196,0.000000000,0.000000000,-0.096671235,0.000000000,0.000000000,9.800000000,0.966987907,0.000000000,0.000000000,-0.254822265
2.945832862,0.000000000,0.000000000,-0.080616471,0.000000000,0.000000000,9.800000000,0.966945096,0.000000000,0.000000000,-0.254984668
2.954166194,0.000000000,0.000000000,-0.080616471,0.000000000,0.000000000,9.800000000,0.966859392,0.000000000,0.000000000,-0.255309453
2.958332860,0.000000000,0.000000000,-0.064530628,0.000000000,0.000000000,9.800000000,0.966825060,0.000000000,0.000000000,-0.255439434
2.962499526,0.000000000,0.000000000,-0.064530628,0.000000000,0.000000000,9.800000000,0.966790710,0.000000000,0.000000000,-0.255569410
2.966666192,0.000000000,0.000000000,-0.064530628,0.000000000,0.000000000,9.800000000,0.966756343,0.000000000,0.000000000,-0.255699382
2.970832858,0.000000000,0.000000000,-0.048419907,-0.000000000,0.000000000,9.800000000,0.966730544,0.000000000,0.000000000,-0.255796902
2.979166190,0.000000000,0.000000000,-0.048419907,-0.000000000,0.000000000,9.800000000,0.966678918,0.000000000,0.000000000,-0.255991934
2.983332856,0.000000000,0.000000000,-0.032290519,-0.000000000,-0.000000000,9.800000000,0.966661694,0.000000000,0.000000000,-0.256056964
2.987499522,0.000000000,0.000000000,-0.032290519,-0.000000000,0.000000000,9.800000000,0.966644467,0.000000000,0.000000000,-0.256121993
2.991666188,0.000000000,0.000000000,-0.032290519,-0.000000000,0.000000000,9.800000000,0.966627235,0.000000000,0.000000000,-0.256187020
2.995832854,0.000000000,0.000000000,-0.016148682,0.000000000,0.000000000,9.800000000,0.966618615,0.000000000,0.000000000,-0.256219540
3.004166186,0.000000000,0.000000000,-0.016148682,0.000000000,0.000000000,9.800000000,0.966601373,0.000000000,0.000000000,-0.256284580
3.008332852,0.000000000,0.000000000,-0.000000620,-0.000000000,0.000000000,9.800000000,0.966601373,0.000000000,0.000000000,-0.256284581
3.012499518,0.000000000,0.000000000,-0.000000620,-0.000000000,-0.000000000,9.800000000,0.966601372,0.000000000,0.000000000,-0.256284582
3.016666184,0.000000000,0.000000000,-0.000000620,-0.000000000,0.000000000,9.800000000,0.966601372,0.000000000,0.000000000,-0.256284584
3.020832850,0.000000000,0.000000000,0.016147442,-0.000000000,-0.000000000,9.800000000,0.966609993,0.000000000,0.000000000,-0.256252066
3.029166182,0.000000000,0.000000000,0.016147442,-0.000000000,-0.000000000,9.800000000,0.966627232,0.000000000,0.000000000,-0.256187031
3.033332848,0.000000000,0.000000000,0.032289279,0.000000000,0.000000000,9.800000000,0.966644463,0.000000000,0.000000000,-0.256122006
3.037499514,0.000000000,0.000000000,0.032289279,0.000000000,0.000000000,9.800000000,0.966661690,0.000000000,0.000000000,-0.256056980
3.041666180,0.000000000,0.000000000,0.032289279,0.000000000,0.000000000,9.800000000,0.966678913,0.000000000,0.000000000,-0.255991953
3.045832846,0.000000000,0.000000000,0.048418668,0.000000000,0.000000000,9.800000000,0.966704730,0.000000000,0.000000000,-0.255894441
3.054166178,0.000000000,0.000000000,0.048418668,0.000000000,0.000000000,9.800000000,0.966756336,0.000000000,0.000000000,-0.255699408
3.058332844,0.000000000,0.000000000,0.064529391,0.000000000,-0.000000000,9.800000000,0.966790702,0.000000000,0.000000000,-0.255569439
3.062499510,0.000000000,0.000000000,0.064529391,0.000000000,0.000000000,9.800000000,0.966825051,0.000000000,0.000000000,-0.255439465
3.066666176,0.000000000,0.000000000,0.064529391,0.000000000,-0.000000000,9.800000000,0.966859383,0.000000000,0.000000000,-0.255309486
3.070832842,0.000000000,0.000000000,0.080615237,0.000000000,0.000000000,9.800000000,0.966902248,0.000000000,0.000000000,-0.255147100
3.079166174,0.000000000,0.000000000,0.080615237,-0.000000000,0.000000000,9.800000000,0.966987897,0.000000000,0.000000000,-0.254822306
3.083332840,0.000000000,0.000000000,0.096670003,0.000000000,0.000000000,9.800000000,0.967039197,0.000000000,0.000000000,-0.254627554
3.087499506,0.000000000,0.000000000,0.096670003,0.000000000,0.000000000,9.800000000,0.967090458,0.000000000,0.000000000,-0.254432791
3.091666172,0.000000000,0.000000000,0.096670003,0.000000000,0.000000000,9.800000000,0.967141681,0.000000000,0.000000000,-0.254238018
3.095832838,0.000000000,0.000000000,0.112687502,0.000000000,0.000000000,9.800000000,0.967201340,0.000000000,0.000000000,-0.254010959
3.104166170,0.000000000,0.000000000,0.112687502,0.000000000,0.000000000,9.800000000,0.967320500,0.000000000,0.000000000,-0.253556800
3.108332836,0.000000000,0.000000000,0.128661557,0.000000000,0.000000000,9.800000000,0.967388430,0.000000000,0.000000000,-0.253297506
3.112499502,0.000000000,0.000000000,0.128661557,0.000000000,0.000000000,9.800000000,0.967456290,0.000000000,0.000000000,-0.253038193
3.116666168,0.000000000,0.000000000,0.128661557,0.000000000,0.000000000,9.800000000,0.967524081,0.000000000,0.000000000,-0.252778862
3.120832834,0.000000000,0.000000000,0.144586011,0.000000000,0.000000000,9.800000000,0.967600179,0.000000000,0.000000000,-0.252487413
3.129166166,0.000000000,0.000000000,0.144586011,0.000000000,0.000000000,9.800000000,0.967752112,0.000000000,0.000000000,-0.251904444
3.133332832,0.000000000,0.000000000,0.160454725,-0.000000000,0.000000000,9.800000000,0.967836265,0.000000000,0.000000000,-0.251580929
3.137499498,0.000000000,0.000000000,0.160454725,0.000000000,0.000000000,9.800000000,0.967920310,0.000000000,0.000000000,-0.251257386
3.141666164,0.000000000,0.000000000,0.160454725,-0.000000000,0.000000000,9.800000000,0.968004246,0.000000000,0.000000000,-0.250933815
3.145832830,0.000000000,0.000000000,0.176261580,-0.000000000,0.000000000,9.800000000,0.968096327,0.000000000,0.000000000,-0.250578336
3.154166162,0.000000000,0.000000000,0.176261580,0.000000000,0.000000000,9.800000000,0.968280096,0.000000000,0.000000000,-0.249867276
3.158332828,0.000000000,0.000000000,0.192000483,0.000000000,0.000000000,9.800000000,0.968379966,0.000000000,0.000000000,-0.249479943
3.162499494,0.000000000,0.000000000,0.192000483,0.000000000,-0.000000000,9.800000000,0.968479680,0.000000000,0.000000000,-0.249092570
3.166666160,0.000000000,0.000000000,0.192000483,0.000000000,-0.000000000,9.800000000,0.968579240,0.000000000,0.000000000,-0.248705157
3.170832826,0.000000000,0.000000000,0.207665366,-0.000000000,0.000000000,9.800000000,0.968686748,0.000000000,0.000000000,-0.248286092
3.179166158,0.000000000,0.000000000,0.207665366,-0.000000000,0.000000000,9.800000000,0.968901221,0.000000000,0.000000000,-0.247447821
3.183332824,0.000000000,0.000000000,0.223250190,-0.000000000,-0.000000000,9.800000000,0.969016205,0.000000000,0.000000000,-0.246997154
3.187499490,0.000000000,0.000000000,0.223250190,-0.000000000,-0.000000000,9.800000000,0.969130980,0.000000000,0.000000000,-0.246546433
3.191666156,0.000000000,0.000000000,0.223250190,-0.000000000,-0.000000000,9.800000000,0.969245545,0.000000000,0.000000000,-0.246095659
3.195832822,0.000000000,0.000000000,0.238748947,-0.000000000,-0.000000000,9.800000000,0.969367831,0.000000000,0.000000000,-0.245613532
3.204166154,0.000000000,0.000000000,0.238748947,0.000000000,-0.000000000,9.800000000,0.969611685,0.000000000,0.000000000,-0.244649096
3.208332820,0.000000000,0.000000000,0.254155662,0.000000000,0.000000000,9.800000000,0.969741089,0.000000000,0.000000000,-0.244135662
3.212499486,0.000000000,0.000000000,0.254155662,0.000000000,0.000000000,9.800000000,0.969870220,0.000000000,0.000000000,-0.243622158
3.216666152,0.000000000,0.000000000,0.254155662,0.000000000,0.000000000,9.800000000,0.969999080,0.000000000,0.000000000,-0.243108587
3.220832818,0.000000000,0.000000000,0.269464394,0.000000000,0.000000000,9.800000000,0.970135404,0.000000000,0.000000000,-0.242564006
3.229166150,0.000000000,0.000000000,0.269464394,0.000000000,0.000000000,9.800000000,0.970407136,0.000000000,0.000000000,-0.241474617
3.233332816,0.000000000,0.000000000,0.284669244,0.000000000,0.000000000,9.800000000,0.970550174,0.000000000,0.000000000,-0.240899064
3.237499482,0.000000000,0.000000000,0.284669244,0.000000000,0.000000000,9.800000000,0.970692872,0.000000000,0.000000000,-0.240323426
3.241666148,0.000000000,0.000000000,0.284669244,0.000000000,0.000000000,9.800000000,0.970835227,0.000000000,0.000000000,-0.239747704
3.245832814,0.000000000,0.000000000,0.299764348,-0.000000000,-0.000000000,9.800000000,0.970984762,0.000000000,0.000000000,-0.239141362
3.254166146,0.000000000,0.000000000,0.299764348,-0.000000000,-0.000000000,9.800000000,0.971282697,0.000000000,0.000000000,-0.237928398
3.258332812,0.000000000,0.000000000,0.314743887,0.000000000,-0.000000000,9.800000000,0.971438502,0.000000000,0.000000000,-0.237291461
3.262499478,0.000000000,0.000000000,0.314743887,0.000000000,0.000000000,9.800000000,0.971593889,0.000000000,0.000000000,-0.236654422
3.266666144,0.000000000,0.000000000,0.314743887,0.000000000,0.000000000,9.800000000,0.971748858,0.000000000,0.000000000,-0.236017281
3.270832810,0.000000000,0.000000000,0.329602086,0.000000000,0.000000000,9.800000000,0.971910695,0.000000000,0.000000000,-0.235349954
3.279166142,0.000000000,0.000000000,0.329602086,-0.000000000,0.000000000,9.800000000,0.972232994,0.000000000,0.000000000,-0.234014967
3.283332808,0.000000000,0.000000000,0.344333218,0.000000000,0.000000000,9.800000000,0.972400617,0.000000000,0.000000000,-0.233317465
3.287499474,0.000000000,0.000000000,0.344333218,0.000000000,0.000000000,9.800000000,0.972567740,0.000000000,0.000000000,-0.232619843
3.291666140,0.000000000,0.000000000,0.344333218,0.000000000,0.000000000,9.800000000,0.972734362,0.000000000,0.000000000,-0.231922101
3.295832806,0.000000000,0.000000000,0.358931602,-0.000000000,0.000000000,9.800000000,0.972907515,0.000000000,0.000000000,-0.231194651
3.304166138,0.000000000,0.000000000,0.358931602,-0.000000000,-0.000000000,9.800000000,0.973252190,0.000000000,0.000000000,-0.229739363
3.308332804,0.000000000,0.000000000,0.373391612,-0.000000000,0.000000000,9.800000000,0.973430609,0.000000000,0.000000000,-0.228982202
3.312499470,0.000000000,0.000000000,0.373391612,-0.000000000,0.000000000,9.800000000,0.973608440,0.000000000,0.000000000,-0.228224902
3.316666136,0.000000000,0.000000000,0.373391612,-0.000000000,0.000000000,9.800000000,0.973785681,0.000000000,0.000000000,-0.227467464
3.320832802,0.000000000,0.000000000,0.387707672,-0.000000000,-0.000000000,9.800000000,0.973969095,0.000000000,0.000000000,-0.226680839
3.329166134,0.000000000,0.000000000,0.387707672,-0.000000000,-0.000000000,9.800000000,0.974334015,0.000000000,0.000000000,-0.225107147
3.333332800,0.000000000,0.000000000,0.401874263,0.000000000,0.000000000,9.800000000,0.974522141,0.000000000,0.000000000,-0.224291319
3.337499466,0.000000000,0.000000000,0.401874263,0.000000000,-0.000000000,9.800000000,0.974709585,0.000000000,0.000000000,-0.223475334
3.341666132,0.000000000,0.000000000,0.401874263,0.000000000,0.000000000,9.800000000,0.974896345,0.000000000,0.000000000,-0.222659192
3.345832798,0.000000000,0.000000000,0.415885925,0.000000000,-0.000000000,9.800000000,0.975088898,0.000000000,0.000000000,-0.221814430
3.354166130,0.000000000,0.000000000,0.415885925,0.000000000,-0.000000000,9.800000000,0.975471806,0.000000000,0.000000000,-0.220124407
3.358332796,0.000000000,0.000000000,0.429737254,-0.000000000,0.000000000,9.800000000,0.975668490,0.000000000,0.000000000,-0.219250993
3.362499462,0.000000000,0.000000000,0.429737254,-0.000000000,0.000000000,9.800000000,0.975864391,0.000000000,0.000000000,-0.218377403
3.366666128,0.000000000,0.000000000,0.429737254,-0.000000000,0.000000000,9.800000000,0.976059510,0.000000000,0.000000000,-0.217503638
3.370832794,0.000000000,0.000000000,0.443422912,-0.000000000,0.000000000,9.800000000,0.976260023,0.000000000,0.000000000,-0.216601864
3.379166126,0.000000000,0.000000000,0.456937621,0.000000000,0.000000000,9.800000000,0.976664596,0.000000000,0.000000000,-0.214770264
3.383332792,0.000000000,0.000000000,0.456937621,0.000000000,0.000000000,9.800000000,0.976868605,0.000000000,0.000000000,-0.213840428
3.387499458,0.000000000,0.000000000,0.456937621,0.000000000,0.000000000,9.800000000,0.977071728,0.000000000,0.000000000,-0.212910398
3.391666124,0.000000000,0.000000000,0.456937621,0.000000000,0.000000000,9.800000000,0.977273966,0.000000000,0.000000000,-0.211980175
3.395832790,0.000000000,0.000000000,0.470276173,0.000000000,0.000000000,9.800000000,0.977481183,0.000000000,0.000000000,-0.211022597
3.404166122,0.000000000,0.000000000,0.470276173,0.000000000,0.000000000,9.800000000,0.977892802,0.000000000,0.000000000,-0.209106835
3.408332788,0.000000000,0.000000000,0.483433424,0.000000000,0.000000000,9.800000000,0.978102908,0.000000000,0.000000000,-0.208121841
3.412499454,0.000000000,0.000000000,0.483433424,0.000000000,0.000000000,9.800000000,0.978312023,0.000000000,0.000000000,-0.207136637
3.416666120,0.000000000,0.000000000,0.483433424,0.000000000,0.000000000,9.800000000,0.978520145,0.000000000,0.000000000,-0.206151222
3.420832786,0.000000000,0.000000000,0.496404303,0.000000000,-0.000000000,9.800000000,0.978732818,0.000000000,0.000000000,-0.205139151
3.429166118,0.000000000,0.000000000,0.496404303,0.000000000,-0.000000000,9.800000000,0.979155024,0.000000000,0.000000000,-0.203114350
3.433332784,0.000000000,0.000000000,0.509183808,0.000000000,0.000000000,9.800000000,0.979369936,0.000000000,0.000000000,-0.202075549
3.437499450,0.000000000,0.000000000,0.509183808,0.000000000,0.000000000,9.800000000,0.979583747,0.000000000,0.000000000,-0.201036521
3.441666116,0.000000000,0.000000000,0.509183808,-0.000000000,0.000000000,9.800000000,0.979796455,0.000000000,0.000000000,-0.199997266
3.445832782,0.000000000,0.000000000,0.521767013,0.000000000,0.000000000,9.800000000,0.980013276,0.000000000,0.000000000,-0.198932095
3.454166114,0.000000000,0.000000000,0.521767013,0.000000000,0.000000000,9.800000000,0.980443444,0.000000000,0.000000000,-0.196801049
3.458332780,0.000000000,0.000000000,0.534149067,0.000000000,0.000000000,9.800000000,0.980661839,0.000000000,0.000000000,-0.195709880
3.462499446,0.000000000,0.000000000,0.534149067,-0.000000000,0.000000000,9.800000000,0.980879020,0.000000000,0.000000000,-0.194618468
3.466666112,0.000000000,0.000000000,0.534149067,0.000000000,0.000000000,9.800000000,0.981094986,0.000000000,0.000000000,-0.193526816
3.470832778,0.000000000,0.000000000,0.546325197,0.000000000,0.000000000,9.800000000,0.981314618,0.000000000,0.000000000,-0.192410031
3.479166110,0.000000000,0.000000000,0.546325197,0.000000000,0.000000000,9.800000000,0.981750069,0.000000000,0.000000000,-0.190175714
3.483332776,0.000000000,0.000000000,0.558290708,0.000000000,-0.000000000,9.800000000,0.981970599,0.000000000,0.000000000,-0.189033707
3.487499442,0.000000000,0.000000000,0.558290708,0.000000000,0.000000000,9.800000000,0.982189801,0.000000000,0.000000000,-0.187891444
3.491666108,0.000000000,0.000000000,0.558290708,0.000000000,0.000000000,9.800000000,0.982407674,0.000000000,0.000000000,-0.186748927
3.495832774,0.000000000,0.000000000,0.570040987,0.000000000,0.000000000,9.800000000,0.982628762,0.000000000,0.000000000,-0.185582102
3.504166106,0.000000000,0.000000000,0.570040987,-0.000000000,0.000000000,9.800000000,0.983066779,0.000000000,0.000000000,-0.183247670
3.508332772,0.000000000,0.000000000,0.581571505,0.000000000,0.000000000,9.800000000,0.983288081,0.000000000,0.000000000,-0.182056445
3.512499438,0.000000000,0.000000000,0.581571505,-0.000000000,-0.000000000,9.800000000,0.983507940,0.000000000,0.000000000,-0.180864953
3.516666104,0.000000000,0.000000000,0.581571505,0.000000000,0.000000000,9.800000000,0.983726356,0.000000000,0.000000000,-0.179673196
3.520832770,0.000000000,0.000000000,0.592877816,-0.000000000,-0.000000000,9.800000000,0.983947531,0.000000000,0.000000000,-0.178457998
3.529166102,0.000000000,0.000000000,0.592877816,-0.000000000,-0.000000000,9.800000000,0.984385377,0.000000000,0.000000000,-0.176026786
3.533332768,0.000000000,0.000000000,0.603955561,0.000000000,0.000000000,9.800000000,0.984606082,0.000000000,0.000000000,-0.174788054
3.537499434,0.000000000,0.000000000,0.603955561,0.000000000,0.000000000,9.800000000,0.984825228,0.000000000,0.000000000,-0.173549044
3.541666100,0.000000000,0.000000000,0.603955561,0.000000000,0.000000000,9.800000000,0.985042815,0.000000000,0.000000000,-0.172309760
3.545832766,0.000000000,0.000000000,0.614800470,0.000000000,0.000000000,9.800000000,0.985262707,0.000000000,0.000000000,-0.171047943
3.554166098,0.000000000,0.000000000,0.614800470,0.000000000,0.000000000,9.800000000,0.985697642,0.000000000,0.000000000,-0.168523468
3.558332764,0.000000000,0.000000000,0.625408362,-0.000000000,-0.000000000,9.800000000,0.985916380,0.000000000,0.000000000,-0.167239027
3.562499430,0.000000000,0.000000000,0.625408362,-0.000000000,-0.000000000,9.800000000,0.986133444,0.000000000,0.000000000,-0.165954301
3.566666096,0.000000000,0.000000000,0.625408362,-0.000000000,0.000000000,9.800000000,0.986348835,0.000000000,0.000000000,-0.164669294
3.570832762,0.000000000,0.000000000,0.635775147,0.000000000,0.000000000,9.800000000,0.986566079,0.000000000,0.000000000,-0.163362700
3.579166094,0.000000000,0.000000000,0.635775147,0.000000000,-0.000000000,9.800000000,0.986995375,0.000000000,0.000000000,-0.160748655
3.583332760,0.000000000,0.000000000,0.645896829,-0.000000000,-0.000000000,9.800000000,0.987210788,0.000000000,0.000000000,-0.159420391
3.587499426,0.000000000,0.000000000,0.645896829,-0.000000000,-0.000000000,9.800000000,0.987424413,0.000000000,0.000000000,-0.158091838
3.591666092,0.000000000,0.000000000,0.645896829,-0.000000000,-0.000000000,9.800000000,0.987636250,0.000000000,0.000000000,-0.156762999
3.595832758,0.000000000,0.000000000,0.655769505,0.000000000,0.000000000,9.800000000,0.987849496,0.000000000,0.000000000,-0.155413558
3.604166090,0.000000000,0.000000000,0.655769505,0.000000000,-0.000000000,9.800000000,0.988270455,0.000000000,0.000000000,-0.152713808
3.608332756,0.000000000,0.000000000,0.665389370,-0.000000000,-0.000000000,9.800000000,0.988481202,0.000000000,0.000000000,-0.151343694
3.612499422,0.000000000,0.000000000,0.665389370,0.000000000,-0.000000000,9.800000000,0.988690049,0.000000000,0.000000000,-0.149973289
3.616666088,0.000000000,0.000000000,0.665389370,0.000000000,-0.000000000,9.800000000,0.988896996,0.000000000,0.000000000,-0.148602596
3.620832754,0.000000000,0.000000000,0.674752714,0.000000000,-0.000000000,9.800000000,0.989104915,0.000000000,0.000000000,-0.147212323
3.629166086,0.000000000,0.000000000,0.674752714,0.000000000,0.000000000,9.800000000,0.989514888,0.000000000,0.000000000,-0.144430907
3.633332752,0.000000000,0.000000000,0.683855929,0.000000000,0.000000000,9.800000000,0.989719654,0.000000000,0.000000000,-0.143020999
3.637499418,0.000000000,0.000000000,0.683855929,0.000000000,0.000000000,9.800000000,0.989922412,0.000000000,0.000000000,-0.141610802
3.641666084,0.000000000,0.000000000,0.683855929,0.000000000,0.000000000,9.800000000,0.990123160,0.000000000,0.000000000,-0.140200316
3.645832750,0.000000000,0.000000000,0.692695504,-0.000000000,-0.000000000,9.800000000,0.990324454,0.000000000,0.000000000,-0.138771309
3.654166082,0.000000000,0.000000000,0.692695504,0.000000000,-0.000000000,9.800000000,0.990720854,0.000000000,0.000000000,-0.135912430
3.658332748,0.000000000,0.000000000,0.701268032,0.000000000,-0.000000000,9.800000000,0.990918362,0.000000000,0.000000000,-0.134464867
3.662499414,0.000000000,0.000000000,0.701268032,0.000000000,-0.000000000,9.800000000,0.991113754,0.000000000,0.000000000,-0.133017017
3.666666080,0.000000000,0.000000000,0.701268032,0.000000000,-0.000000000,9.800000000,0.991307031,0.000000000,0.000000000,-0.131568883
3.670832746,0.000000000,0.000000000,0.709570208,0.000000000,0.000000000,9.800000000,0.991500442,0.000000000,0.000000000,-0.130103320
3.679166078,0.000000000,0.000000000,0.709570208,0.000000000,0.000000000,9.800000000,0.991880764,0.000000000,0.000000000,-0.127171343
3.683332744,0.000000000,0.000000000,0.717598831,0.000000000,-0.000000000,9.800000000,0.992069776,0.000000000,0.000000000,-0.125688342
3.687499410,0.000000000,0.000000000,0.717598831,0.000000000,0.000000000,9.800000000,0.992256571,0.000000000,0.000000000,-0.124205060
3.691666076,0.000000000,0.000000000,0.717598831,0.000000000,-0.000000000,9.800000000,0.992441148,0.000000000,0.000000000,-0.122721501
3.695832742,0.000000000,0.000000000,0.725350807,0.000000000,0.000000000,9.800000000,0.992625465,0.000000000,0.000000000,-0.121221637
3.704166074,0.000000000,0.000000000,0.725350807,0.000000000,0.000000000,9.800000000,0.992987299,0.000000000,0.000000000,-0.118221081
3.708332740,0.000000000,0.000000000,0.732823145,-0.000000000,-0.000000000,9.800000000,0.993166631,0.000000000,0.000000000,-0.116704936
3.712499406,0.000000000,0.000000000,0.732823145,-0.000000000,0.000000000,9.800000000,0.993343649,0.000000000,0.000000000,-0.115188519
3.716666072,0.000000000,0.000000000,0.732823145,-0.000000000,-0.000000000,9.800000000,0.993518351,0.000000000,0.000000000,-0.113671833
3.720832738,0.000000000,0.000000000,0.740012967,-0.000000000,0.000000000,9.800000000,0.993692418,0.000000000,0.000000000,-0.112139997
3.729166070,0.000000000,0.000000000,0.740012967,0.000000000,0.000000000,9.800000000,0.994033464,0.000000000,0.000000000,-0.109075531
3.733332736,0.000000000,0.000000000,0.746917500,-0.000000000,-0.000000000,9.800000000,0.994201991,0.000000000,0.000000000,-0.107528606
3.737499402,0.000000000,0.000000000,0.746917500,0.000000000,-0.000000000,9.800000000,0.994368110,0.000000000,0.000000000,-0.105981421
3.741666068,0.000000000,0.000000000,0.746917500,-0.000000000,-0.000000000,9.800000000,0.994531822,0.000000000,0.000000000,-0.104433979
3.745832734,0.000000000,0.000000000,0.753534082,0.000000000,0.000000000,9.800000000,0.994694543,0.000000000,0.000000000,-0.102872573
3.754166066,0.000000000,0.000000000,0.753534082,0.000000000,0.000000000,9.800000000,0.995012631,0.000000000,0.000000000,-0.099749004
3.758332732,0.000000000,0.000000000,0.759860162,0.000000000,-0.000000000,9.800000000,0.995169291,0.000000000,0.000000000,-0.098173733
3.762499398,0.000000000,0.000000000,0.759860162,0.000000000,0.000000000,9.800000000,0.995323457,0.000000000,0.000000000,-0.096598216
3.766666064,0.000000000,0.000000000,0.759860162,0.000000000,0.000000000,9.800000000,0.995475129,0.000000000,0.000000000,-0.095022457
3.770832730,0.000000000,0.000000000,0.765893301,0.000000000,-0.000000000,9.800000000,0.995625481,0.000000000,0.000000000,-0.093433946
3.779166062,0.000000000,0.000000000,0.765893301,-0.000000000,-0.000000000,9.800000000,0.995918579,0.000000000,0.000000000,-0.090256214
3.783332728,0.000000000,0.000000000,0.771631175,-0.000000000,0.000000000,9.800000000,0.996062385,0.000000000,0.000000000,-0.088655094
3.787499394,0.000000000,0.000000000,0.771631175,0.000000000,0.000000000,9.800000000,0.996203616,0.000000000,0.000000000,-0.087053746
3.791666060,0.000000000,0.000000000,0.771631175,0.000000000,0.000000000,9.800000000,0.996342274,0.000000000,0.000000000,-0.085452172
3.795832726,0.000000000,0.000000000,0.777071570,0.000000000,0.000000000,9.800000000,0.996479306,0.000000000,0.000000000,-0.083839084
3.804166058,0.000000000,0.000000000,0.777071570,0.000000000,0.000000000,9.800000000,0.996745537,0.000000000,0.000000000,-0.080612251
3.808332724,0.000000000,0.000000000,0.782212389,0.000000000,-0.000000000,9.800000000,0.996875580,0.000000000,0.000000000,-0.078987840
3.812499390,0.000000000,0.000000000,0.782212389,0.000000000,-0.000000000,9.800000000,0.997002975,0.000000000,0.000000000,-0.077363218
3.816666056,0.000000000,0.000000000,0.782212389,0.000000000,-0.000000000,9.800000000,0.997127723,0.000000000,0.000000000,-0.075738391
3.820832722,0.000000000,0.000000000,0.787051650,0.000000000,0.000000000,9.800000000,0.997250570,0.000000000,0.000000000,-0.074103309
3.829166054,0.000000000,0.000000000,0.787051650,0.000000000,0.000000000,9.800000000,0.997488220,0.000000000,0.000000000,-0.070832552
3.833332720,0.000000000,0.000000000,0.791587489,0.000000000,0.000000000,9.800000000,0.997603677,0.000000000,0.000000000,-0.069187458
3.837499386,0.000000000,0.000000000,0.791587489,0.000000000,0.000000000,9.800000000,0.997716420,0.000000000,0.000000000,-0.067542176
3.841666052,0.000000000,0.000000000,0.791587489,-0.000000000,0.000000000,9.800000000,0.997826450,0.000000000,0.000000000,-0.065896711
3.845832718,0.000000000,0.000000000,0.795818155,0.000000000,-0.000000000,9.800000000,0.997934332,0.000000000,0.000000000,-0.064242270
3.854166050,0.000000000,0.000000000,0.795818155,0.000000000,0.000000000,9.800000000,0.998141867,0.000000000,0.000000000,-0.060932864
3.858332716,0.000000000,0.000000000,0.799742018,-0.000000000,-0.000000000,9.800000000,0.998242003,0.000000000,0.000000000,-0.059269748
3.862499382,0.000000000,0.000000000,0.799742018,-0.000000000,0.000000000,9.800000000,0.998339369,0.000000000,0.000000000,-0.057606466
3.866666048,0.000000000,0.000000000,0.799742018,-0.000000000,-0.000000000,9.800000000,0.998433963,0.000000000,0.000000000,-0.055943025
3.870832714,0.000000000,0.000000000,0.803357566,-0.000000000,-0.000000000,9.800000000,0.998526194,0.000000000,0.000000000,-0.054271907
3.879166046,0.000000000,0.000000000,0.803357566,-0.000000000,0.000000000,9.800000000,0.998702265,0.000000000,0.000000000,-0.050929220
3.883332712,0.000000000,0.000000000,0.806663404,0.000000000,-0.000000000,9.800000000,0.998786444,0.000000000,0.000000000,-0.049250781
3.887499378,0.000000000,0.000000000,0.806663404,0.000000000,-0.000000000,9.800000000,0.998867802,0.000000000,0.000000000,-0.047572203
3.891666044,0.000000000,0.000000000,0.806663404,0.000000000,0.000000000,9.800000000,0.998946339,0.000000000,0.000000000,-0.045893491
3.895832710,0.000000000,0.000000000,0.809658258,0.000000000,0.000000000,9.800000000,0.999022330,0.000000000,0.000000000,-0.044208416
3.904166042,0.000000000,0.000000000,0.809658258,-0.000000000,0.000000000,9.800000000,0.999165785,0.000000000,0.000000000,-0.040837894
3.908332708,0.000000000,0.000000000,0.812340973,0.000000000,0.000000000,9.800000000,0.999233467,0.000000000,0.000000000,-0.039146871
3.912499374,0.000000000,0.000000000,0.812340973,0.000000000,0.000000000,9.800000000,0.999298288,0.000000000,0.000000000,-0.037455736
3.916666040,0.000000000,0.000000000,0.812340973,0.000000000,0.000000000,9.800000000,0.999360246,0.000000000,0.000000000,-0.035764494
3.920832706,0.000000000,0.000000000,0.814710516,-0.000000000,0.000000000,9.800000000,0.999419510,0.000000000,0.000000000,-0.034068216
3.929166038,0.000000000,0.000000000,0.814710516,0.000000000,0.000000000,9.800000000,0.999529400,0.000000000,0.000000000,-0.030675370
3.933332704,0.000000000,0.000000000,0.816765972,0.000000000,-0.000000000,9.800000000,0.999580150,0.000000000,0.000000000,-0.028974532
3.937499370,0.000000000,0.000000000,0.816765972,0.000000000,0.000000000,9.800000000,0.999628006,0.000000000,0.000000000,-0.027273610
3.941666036,0.000000000,0.000000000,0.816765972,0.000000000,0.000000000,9.800000000,0.999672967,0.000000000,0.000000000,-0.025572609
3.945832702,0.000000000,0.000000000,0.818506550,-0.000000000,0.000000000,9.800000000,0.999715121,0.000000000,0.000000000,-0.023867908
3.954166034,0.000000000,0.000000000,0.818506550,0.000000000,0.000000000,9.800000000,0.999790707,0.000000000,0.000000000,-0.020458304
3.958332700,0.000000000,0.000000000,0.819931578,0.000000000,0.000000000,9.800000000,0.999824195,0.000000000,0.000000000,-0.018750442
3.962499366,0.000000000,0.000000000,0.819931578,0.000000000,0.000000000,9.800000000,0.999854766,0.000000000,0.000000000,-0.017042525
3.966666032,0.000000000,0.000000000,0.819931578,0.000000000,0.000000000,9.800000000,0.999882419,0.000000000,0.000000000,-0.015334559
3.970832698,0.000000000,0.000000000,0.821040507,0.000000000,0.000000000,9.800000000,0.999907186,0.000000000,0.000000000,-0.013624238
3.979166030,0.000000000,0.000000000,0.821040507,0.000000000,0.000000000,9.800000000,0.999947943,0.000000000,0.000000000,-0.010203481
3.983332696,0.000000000,0.000000000,0.821832909,0.000000000,0.000000000,9.800000000,0.999963947,0.000000000,0.000000000,-0.008491404
3.987499362,0.000000000,0.000000000,0.821832909,-0.000000000,0.000000000,9.800000000,0.999977020,0.000000000,0.000000000,-0.006779303
3.991666028,0.000000000,0.000000000,0.821832909,0.000000000,0.000000000,9.800000000,0.999987162,0.000000000,0.000000000,-0.005067181
3.995832694,0.000000000,0.000000000,0.822308479,0.000000000,0.000000000,9.800000000,0.999994375,0.000000000,0.000000000,-0.003354054
4.004166026,0.000000000,0.000000000,0.822308479,0.000000000,-0.000000000,9.800000000,0.999999997,0.000000000,0.000000000,0.000072224
4.008332692,0.000000000,0.000000000,0.822467033,-0.000000000,0.000000000,9.800000000,0.999998406,0.000000000,0.000000000,0.001785696
4.012499358,0.000000000,0.000000000,0.822467033,-0.000000000,0.000000000,9.800000000,0.999993878,0.000000000,0.000000000,0.003499163
4.016666024,0.000000000,0.000000000,0.822467033,-0.000000000,0.000000000,9.800000000,0.999986414,0.000000000,0.000000000,0.005212619
4.020832690,0.000000000,0.000000000,0.822308511,-0.000000000,0.000000000,9.800000000,0.999976017,0.000000000,0.000000000,0.006925730
4.029166022,0.000000000,0.000000000,0.822308511,-0.000000000,-0.000000000,9.800000000,0.999946418,0.000000000,0.000000000,0.010351885
4.033332688,0.000000000,0.000000000,0.821832974,0.000000000,-0.000000000,9.800000000,0.999927228,0.000000000,0.000000000,0.012063929
4.037499354,0.000000000,0.000000000,0.821832974,-0.000000000,-0.000000000,9.800000000,0.999905107,0.000000000,0.000000000,0.013775938
4.041666020,0.000000000,0.000000000,0.821832974,0.000000000,0.000000000,9.800000000,0.999880055,0.000000000,0.000000000,0.015487906
4.045832686,0.000000000,0.000000000,0.821040604,0.000000000,0.000000000,9.800000000,0.999852100,0.000000000,0.000000000,0.017198178
4.054166018,0.000000000,0.000000000,0.821040604,-0.000000000,-0.000000000,9.800000000,0.999787415,0.000000000,0.000000000,0.020618567
4.058332684,0.000000000,0.000000000,0.819931708,-0.000000000,-0.000000000,9.800000000,0.999750736,0.000000000,0.000000000,0.022326364
4.062499350,0.000000000,0.000000000,0.819931708,0.000000000,-0.000000000,9.800000000,0.999711139,0.000000000,0.000000000,0.024034095
4.066666016,0.000000000,0.000000000,0.819931708,0.000000000,0.000000000,9.800000000,0.999668626,0.000000000,0.000000000,0.025741757
4.070832682,0.000000000,0.000000000,0.818506712,0.000000000,-0.000000000,9.800000000,0.999623277,0.000000000,0.000000000,0.027446375
4.079166014,0.000000000,0.000000000,0.818506712,0.000000000,-0.000000000,9.800000000,0.999523860,0.000000000,0.000000000,0.030855368
4.083332680,0.000000000,0.000000000,0.816766167,0.000000000,0.000000000,9.800000000,0.999469909,0.000000000,0.000000000,0.032556109
4.087499346,0.000000000,0.000000000,0.816766167,0.000000000,0.000000000,9.800000000,0.999413065,0.000000000,0.000000000,0.034256755
4.091666012,0.000000000,0.000000000,0.816766167,0.000000000,0.000000000,9.800000000,0.999353327,0.000000000,0.000000000,0.035957301
4.095832678,0.000000000,0.000000000,0.814710743,0.000000000,0.000000000,9.800000000,0.999290857,0.000000000,0.000000000,0.037653465
4.104166010,0.000000000,0.000000000,0.814710743,-0.000000000,-0.000000000,9.800000000,0.999157280,0.000000000,0.000000000,0.041045462
4.108332676,0.000000000,0.000000000,0.812341232,0.000000000,-0.000000000,9.800000000,0.999086385,0.000000000,0.000000000,0.042736353
4.112499342,0.000000000,0.000000000,0.812341232,0.000000000,-0.000000000,9.800000000,0.999012628,0.000000000,0.000000000,0.044427122
4.116666008,0.000000000,0.000000000,0.812341232,0.000000000,-0.000000000,9.800000000,0.998936010,0.000000000,0.000000000,0.046117764
4.120832674,0.000000000,0.000000000,0.809658549,0.000000000,0.000000000,9.800000000,0.998856798,0.000000000,0.000000000,0.047802692
4.129166006,0.000000000,0.000000000,0.809658549,0.000000000,0.000000000,9.800000000,0.998689848,0.000000000,0.000000000,0.051172133
4.133332672,0.000000000,0.000000000,0.806663726,0.000000000,-0.000000000,9.800000000,0.998602441,0.000000000,0.000000000,0.052850407
4.137499338,0.000000000,0.000000000,0.806663726,0.000000000,-0.000000000,9.800000000,0.998512213,0.000000000,0.000000000,0.054528533
4.141666004,0.000000000,0.000000000,0.806663726,0.000000000,-0.000000000,9.800000000,0.998419165,0.000000000,0.000000000,0.056206504
4.145832670,0.000000000,0.000000000,0.803357920,0.000000000,0.000000000,9.800000000,0.998323696,0.000000000,0.000000000,0.057877440
4.154166002,0.000000000,0.000000000,0.803357920,0.000000000,0.000000000,9.800000000,0.998124369,0.000000000,0.000000000,0.061218823
4.158332668,0.000000000,0.000000000,0.799742404,0.000000000,0.000000000,9.800000000,0.998020985,0.000000000,0.000000000,0.062881742
4.162499334,0.000000000,0.000000000,0.799742404,0.000000000,0.000000000,9.800000000,0.997914831,0.000000000,0.000000000,0.064544486
4.166666000,0.000000000,0.000000000,0.799742404,-0.000000000,0.000000000,9.800000000,0.997805906,0.000000000,0.000000000,0.066207052
4.170832666,0.000000000,0.000000000,0.795818572,-0.000000000,-0.000000000,9.800000000,0.997694766,0.000000000,0.000000000,0.067861277
4.179165998,0.000000000,0.000000000,0.795818572,-0.000000000,-0.000000000,9.800000000,0.997464260,0.000000000,0.000000000,0.071169164
4.183332664,0.000000000,0.000000000,0.791587937,0.000000000,0.000000000,9.800000000,0.997345536,0.000000000,0.000000000,0.072814026
4.187499330,0.000000000,0.000000000,0.791587937,0.000000000,0.000000000,9.800000000,0.997224099,0.000000000,0.000000000,0.074458690
4.191665996,0.000000000,0.000000000,0.791587937,0.000000000,0.000000000,9.800000000,0.997099950,0.000000000,0.000000000,0.076103152
4.195832662,0.000000000,0.000000000,0.787052130,-0.000000000,0.000000000,9.800000000,0.996973824,0.000000000,0.000000000,0.077737985
4.204165994,0.000000000,0.000000000,0.787052130,-0.000000000,0.000000000,9.800000000,0.996713531,0.000000000,0.000000000,0.081007020
4.208332660,0.000000000,0.000000000,0.782212900,0.000000000,0.000000000,9.800000000,0.996580198,0.000000000,0.000000000,0.082631166
4.212499326,0.000000000,0.000000000,0.782212900,0.000000000,0.000000000,9.800000000,0.996444218,0.000000000,0.000000000,0.084255093
4.216665992,0.000000000,0.000000000,0.782212900,-0.000000000,0.000000000,9.800000000,0.996305592,0.000000000,0.000000000,0.085878796
4.220832658,0.000000000,0.000000000,0.777072111,0.000000000,-0.000000000,9.800000000,0.996165257,0.000000000,0.000000000,0.087491602
4.229165990,0.000000000,0.000000000,0.777072111,0.000000000,0.000000000,9.800000000,0.995876756,0.000000000,0.000000000,0.090716521
4.233332656,0.000000000,0.000000000,0.771631747,-0.000000000,-0.000000000,9.800000000,0.995729636,0.000000000,0.000000000,0.092317341
4.237499322,0.000000000,0.000000000,0.771631747,0.000000000,-0.000000000,9.800000000,0.995579944,0.000000000,0.000000000,0.093917922
4.241665988,0.000000000,0.000000000,0.771631747,-0.000000000,-0.000000000,9.800000000,0.995427678,0.000000000,0.000000000,0.095518260
4.245832654,0.000000000,0.000000000,0.765893904,-0.000000000,-0.000000000,9.800000000,0.995274001,0.000000000,0.000000000,0.097106454
4.254165986,0.000000000,0.000000000,0.765893904,-0.000000000,0.000000000,9.800000000,0.994959045,0.000000000,0.000000000,0.100282097
4.258332652,0.000000000,0.000000000,0.759860795,0.000000000,0.000000000,9.800000000,0.994799047,0.000000000,0.000000000,0.101857034
4.262499318,0.000000000,0.000000000,0.759860795,0.000000000,0.000000000,9.800000000,0.994636557,0.000000000,0.000000000,0.103431715
4.266665984,0.000000000,0.000000000,0.759860795,0.000000000,0.000000000,9.800000000,0.994471574,0.000000000,0.000000000,0.105006137
4.270832650,0.000000000,0.000000000,0.753534744,0.000000000,0.000000000,9.800000000,0.994305503,0.000000000,0.000000000,0.106567192
4.279165982,0.000000000,0.000000000,0.753534744,0.000000000,0.000000000,9.800000000,0.993966011,0.000000000,0.000000000,0.109688510
4.283332648,0.000000000,0.000000000,0.746918192,0.000000000,0.000000000,9.800000000,0.993794124,0.000000000,0.000000000,0.111235067
4.287499314,0.000000000,0.000000000,0.746918192,-0.000000000,0.000000000,9.800000000,0.993619830,0.000000000,0.000000000,0.112781354
4.291665980,0.000000000,0.000000000,0.746918192,-0.000000000,0.000000000,9.800000000,0.993443130,0.000000000,0.000000000,0.114327368
4.295832646,0.000000000,0.000000000,0.740013689,0.000000000,0.000000000,9.800000000,0.993265692,0.000000000,0.000000000,0.115858818
4.304165978,0.000000000,0.000000000,0.740013689,0.000000000,0.000000000,9.800000000,0.992903733,0.000000000,0.000000000,0.118920888
4.308332644,0.000000000,0.000000000,0.732823896,-0.000000000,-0.000000000,9.800000000,0.992721017,0.000000000,0.000000000,0.120436631
4.312499310,0.000000000,0.000000000,0.732823896,-0.000000000,0.000000000,9.800000000,0.992535988,0.000000000,0.000000000,0.121952093
4.316665976,0.000000000,0.000000000,0.732823896,-0.000000000,0.000000000,9.800000000,0.992348645,0.000000000,0.000000000,0.123467271
4.320832642,0.000000000,0.000000000,0.725351586,0.000000000,0.000000000,9.800000000,0.992160934,0.000000000,0.000000000,0.124966716
4.329165974,0.000000000,0.000000000,0.725351586,-0.000000000,0.000000000,9.800000000,0.991778717,0.000000000,0.000000000,0.127964746
4.333332640,0.000000000,0.000000000,0.717599639,0.000000000,0.000000000,9.800000000,0.991586302,0.000000000,0.000000000,0.129447311
4.337499306,0.000000000,0.000000000,0.717599639,0.000000000,0.000000000,9.800000000,0.991391670,0.000000000,0.000000000,0.130929586
4.341665972,0.000000000,0.000000000,0.717599639,0.000000000,-0.000000000,9.800000000,0.991194823,0.000000000,0.000000000,0.132411569
4.345832638,0.000000000,0.000000000,0.709571044,0.000000000,-0.000000000,9.800000000,0.990997999,0.000000000,0.000000000,0.133876680
4.354165970,0.000000000,0.000000000,0.709571044,0.000000000,-0.000000000,9.800000000,0.990597856,0.000000000,0.000000000,0.136806022
4.358332636,0.000000000,0.000000000,0.701268896,-0.000000000,0.000000000,9.800000000,0.990396929,0.000000000,0.000000000,0.138253115
4.362499302,0.000000000,0.000000000,0.701268896,0.000000000,0.000000000,9.800000000,0.990193887,0.000000000,0.000000000,0.139699914
4.366665968,0.000000000,0.000000000,0.701268896,0.000000000,0.000000000,9.800000000,0.989988732,0.000000000,0.000000000,0.141146415
4.370832634,0.000000000,0.000000000,0.692696396,-0.000000000,0.000000000,9.800000000,0.989784010,0.000000000,0.000000000,0.142574937
4.379165966,0.000000000,0.000000000,0.692696396,-0.000000000,0.000000000,9.800000000,0.989368384,0.000000000,0.000000000,0.145431088
4.383332632,0.000000000,0.000000000,0.683856848,0.000000000,-0.000000000,9.800000000,0.989160184,0.000000000,0.000000000,0.146840495
4.387499298,0.000000000,0.000000000,0.683856848,0.000000000,0.000000000,9.800000000,0.988949976,0.000000000,0.000000000,0.148249603
4.391665964,0.000000000,0.000000000,0.683856848,-0.000000000,-0.000000000,9.800000000,0.988737761,0.000000000,0.000000000,0.149658411
4.395832630,0.000000000,0.000000000,0.674753660,0.000000000,0.000000000,9.800000000,0.988526404,0.000000000,0.000000000,0.151048167
4.404165962,0.000000000,0.000000000,0.674753660,0.000000000,0.000000000,9.800000000,0.988097830,0.000000000,0.000000000,0.153826782
4.408332628,0.000000000,0.000000000,0.665390342,-0.000000000,0.000000000,9.800000000,0.987883641,0.000000000,0.000000000,0.155196364
4.412499294,0.000000000,0.000000000,0.665390342,0.000000000,0.000000000,9.800000000,0.987667554,0.000000000,0.000000000,0.156565648
4.416665960,0.000000000,0.000000000,0.665390342,0.000000000,-0.000000000,9.800000000,0.987449569,0.000000000,0.000000000,0.157934631
4.420832626,0.000000000,0.000000000,0.655770503,0.000000000,-0.000000000,9.800000000,0.987232880,0.000000000,0.000000000,0.159283526
4.429165958,0.000000000,0.000000000,0.655770503,0.000000000,-0.000000000,9.800000000,0.986793972,0.000000000,0.000000000,0.161980420
4.433332624,0.000000000,0.000000000,0.645897853,0.000000000,0.000000000,9.800000000,0.986575115,0.000000000,0.000000000,0.163308123
4.437499290,0.000000000,0.000000000,0.645897853,0.000000000,0.000000000,9.800000000,0.986354471,0.000000000,0.000000000,0.164635530
4.441665956,0.000000000,0.000000000,0.645897853,0.000000000,0.000000000,9.800000000,0.986132041,0.000000000,0.000000000,0.165962639
4.445832622,0.000000000,0.000000000,0.635776196,0.000000000,0.000000000,9.800000000,0.985911353,0.000000000,0.000000000,0.167268658
4.454165954,0.000000000,0.000000000,0.635776196,0.000000000,0.000000000,9.800000000,0.985464788,0.000000000,0.000000000,0.169879814
4.458332620,0.000000000,0.000000000,0.625409436,0.000000000,0.000000000,9.800000000,0.985242609,0.000000000,0.000000000,0.171163667
4.462499286,0.000000000,0.000000000,0.625409436,-0.000000000,-0.000000000,9.800000000,0.985018758,0.000000000,0.000000000,0.172447229
4.466665952,0.000000000,0.000000000,0.625409436,-0.000000000,-0.000000000,9.800000000,0.984793234,0.000000000,0.000000000,0.173730499
4.470832618,0.000000000,0.000000000,0.614801569,0.000000000,0.000000000,9.800000000,0.984569906,0.000000000,0.000000000,0.174991715
4.479165950,0.000000000,0.000000000,0.614801569,0.000000000,0.000000000,9.800000000,0.984118404,0.000000000,0.000000000,0.177513284
4.483332616,0.000000000,0.000000000,0.603956684,0.000000000,0.000000000,9.800000000,0.983894271,0.000000000,0.000000000,0.178751403
4.487499282,0.000000000,0.000000000,0.603956684,0.000000000,-0.000000000,9.800000000,0.983668579,0.000000000,0.000000000,0.179989239
4.491665948,0.000000000,0.000000000,0.603956684,0.000000000,0.000000000,9.800000000,0.983441330,0.000000000,0.000000000,0.181226791
