t,wx,wy,wz,ax,ay,az,qw,qx,qy,qz
0.008333332,0.000000000,0.000000000,0.822467033,-0.000000000,0.000000000,9.800000000,0.999998532,0.000000000,0.000000000,0.001713472
0.012499998,0.000000000,0.000000000,0.822467033,-0.000000000,-0.000000000,9.800000000,0.999994128,0.000000000,0.000000000,0.003426939
0.016666664,0.000000000,0.000000000,0.822467033,-0.000000000,0.000000000,9.800000000,0.999986788,0.000000000,0.000000000,0.005140395
0.020833330,0.000000000,0.000000000,0.822308495,0.000000000,-0.000000000,9.800000000,0.999976514,0.000000000,0.000000000,0.006853507
0.029166662,0.000000000,0.000000000,0.822308495,-0.000000000,-0.000000000,9.800000000,0.999947163,0.000000000,0.000000000,0.010279664
0.033333328,0.000000000,0.000000000,0.822308495,0.000000000,0.000000000,9.800000000,0.999928085,0.000000000,0.000000000,0.011992700
0.037499994,0.000000000,0.000000000,0.822308495,-0.000000000,0.000000000,9.800000000,0.999906072,0.000000000,0.000000000,0.013705701
0.041666660,0.000000000,0.000000000,0.821832941,0.000000000,0.000000000,9.800000000,0.999881141,0.000000000,0.000000000,0.015417671
0.045833326,0.000000000,0.000000000,0.821040555,0.000000000,0.000000000,9.800000000,0.999853306,0.000000000,0.000000000,0.017127945
0.054166658,0.000000000,0.000000000,0.821040555,0.000000000,0.000000000,9.800000000,0.999788861,0.000000000,0.000000000,0.020548338
0.058333324,0.000000000,0.000000000,0.821040555,0.000000000,0.000000000,9.800000000,0.999752250,0.000000000,0.000000000,0.022258447
0.062499990,0.000000000,0.000000000,0.819931643,0.000000000,-0.000000000,9.800000000,0.999712770,0.000000000,0.000000000,0.023966181
0.066666656,0.000000000,0.000000000,0.819931643,0.000000000,0.000000000,9.800000000,0.999670373,0.000000000,0.000000000,0.025673845
0.070833322,0.000000000,0.000000000,0.818506631,0.000000000,0.000000000,9.800000000,0.999625140,0.000000000,0.000000000,0.027378467
0.079166654,0.000000000,0.000000000,0.818506631,0.000000000,0.000000000,9.800000000,0.999525954,0.000000000,0.000000000,0.030787467
0.083333320,0.000000000,0.000000000,0.818506631,0.000000000,0.000000000,9.800000000,0.999472001,0.000000000,0.000000000,0.032491835
0.087499986,0.000000000,0.000000000,0.818506631,-0.000000000,0.000000000,9.800000000,0.999415142,0.000000000,0.000000000,0.034196108
0.091666652,0.000000000,0.000000000,0.818506631,-0.000000000,0.000000000,9.800000000,0.999355377,0.000000000,0.000000000,0.035900282
0.095833318,0.000000000,0.000000000,0.818506631,-0.000000000,-0.000000000,9.800000000,0.999292706,0.000000000,0.000000000,0.037604352
0.104166650,0.000000000,0.000000000,0.814710629,0.000000000,0.000000000,9.800000000,0.999159296,0.000000000,0.000000000,0.040996355
0.108333316,0.000000000,0.000000000,0.812341103,0.000000000,0.000000000,9.800000000,0.999088484,0.000000000,0.000000000,0.042687249
0.112499982,0.000000000,0.000000000,0.812341103,0.000000000,0.000000000,9.800000000,0.999014810,0.000000000,0.000000000,0.044378022
0.116666648,0.000000000,0.000000000,0.812341103,0.000000000,0.000000000,9.800000000,0.998938275,0.000000000,0.000000000,0.046068667
0.120833314,0.000000000,0.000000000,0.812341103,0.000000000,0.000000000,9.800000000,0.998858879,0.000000000,0.000000000,0.047759180
0.129166646,0.000000000,0.000000000,0.809658403,0.000000000,0.000000000,9.800000000,0.998692076,0.000000000,0.000000000,0.051128629
0.133333312,0.000000000,0.000000000,0.809658403,0.000000000,0.000000000,9.800000000,0.998604412,0.000000000,0.000000000,0.052813137
0.137499978,0.000000000,0.000000000,0.806663565,0.000000000,0.000000000,9.800000000,0.998514247,0.000000000,0.000000000,0.054491265
0.141666644,0.000000000,0.000000000,0.806663565,-0.000000000,-0.000000000,9.800000000,0.998421262,0.000000000,0.000000000,0.056169239
0.145833310,0.000000000,0.000000000,0.806663565,-0.000000000,-0.000000000,9.800000000,0.998325457,0.000000000,0.000000000,0.057847055
0.154166642,0.000000000,0.000000000,0.803357743,-0.000000000,0.000000000,9.800000000,0.998126232,0.000000000,0.000000000,0.061188443
0.158333308,0.000000000,0.000000000,0.799742211,-0.000000000,-0.000000000,9.800000000,0.998022899,0.000000000,0.000000000,0.062851365
0.162499974,0.000000000,0.000000000,0.799742211,0.000000000,-0.000000000,9.800000000,0.997916795,0.000000000,0.000000000,0.064514112
0.166666640,0.000000000,0.000000000,0.799742211,0.000000000,-0.000000000,9.800000000,0.997807921,0.000000000,0.000000000,0.066176680
0.170833306,0.000000000,0.000000000,0.795818364,0.000000000,-0.000000000,9.800000000,0.997696832,0.000000000,0.000000000,0.067830908
0.179166638,0.000000000,0.000000000,0.795818364,0.000000000,-0.000000000,9.800000000,0.997466426,0.000000000,0.000000000,0.071138802
0.183333304,0.000000000,0.000000000,0.795818364,-0.000000000,-0.000000000,9.800000000,0.997347110,0.000000000,0.000000000,0.072792457
0.187499970,0.000000000,0.000000000,0.791587713,0.000000000,0.000000000,9.800000000,0.997225709,0.000000000,0.000000000,0.074437123
0.191666636,0.000000000,0.000000000,0.791587713,0.000000000,0.000000000,9.800000000,0.997101596,0.000000000,0.000000000,0.076081587
0.195833302,0.000000000,0.000000000,0.787051890,0.000000000,-0.000000000,9.800000000,0.996975505,0.000000000,0.000000000,0.077716423
0.204166634,0.000000000,0.000000000,0.787051890,0.000000000,-0.000000000,9.800000000,0.996715283,0.000000000,0.000000000,0.080985463
0.208333300,0.000000000,0.000000000,0.782212644,0.000000000,0.000000000,9.800000000,0.996581985,0.000000000,0.000000000,0.082609611
0.212499966,0.000000000,0.000000000,0.782212644,0.000000000,-0.000000000,9.800000000,0.996446040,0.000000000,0.000000000,0.084233540
0.216666632,0.000000000,0.000000000,0.782212644,0.000000000,0.000000000,9.800000000,0.996307449,0.000000000,0.000000000,0.085857245
0.220833298,0.000000000,0.000000000,0.777071841,0.000000000,-0.000000000,9.800000000,0.996167149,0.000000000,0.000000000,0.087470054
0.229166630,0.000000000,0.000000000,0.777071841,0.000000000,-0.000000000,9.800000000,0.995878718,0.000000000,0.000000000,0.090694978
0.233333296,0.000000000,0.000000000,0.771631461,0.000000000,0.000000000,9.800000000,0.995731633,0.000000000,0.000000000,0.092295801
0.237499962,0.000000000,0.000000000,0.771631461,0.000000000,0.000000000,9.800000000,0.995581975,0.000000000,0.000000000,0.093896384
0.241666628,0.000000000,0.000000000,0.771631461,0.000000000,0.000000000,9.800000000,0.995429744,0.000000000,0.000000000,0.095496725
0.245833294,0.000000000,0.000000000,0.771631461,0.000000000,0.000000000,9.800000000,0.995274941,0.000000000,0.000000000,0.097096820
0.254166626,0.000000000,0.000000000,0.765893603,0.000000000,0.000000000,9.800000000,0.994960016,0.000000000,0.000000000,0.100272464
0.258333292,0.000000000,0.000000000,0.759860478,0.000000000,0.000000000,9.800000000,0.994800034,0.000000000,0.000000000,0.101847401
0.262499958,0.000000000,0.000000000,0.759860478,0.000000000,-0.000000000,9.800000000,0.994637558,0.000000000,0.000000000,0.103422084
0.266666624,0.000000000,0.000000000,0.759860478,-0.000000000,-0.000000000,9.800000000,0.994472591,0.000000000,0.000000000,0.104996507
0.270833290,0.000000000,0.000000000,0.759860478,-0.000000000,0.000000000,9.800000000,0.994305131,0.000000000,0.000000000,0.106570667
0.279166622,0.000000000,0.000000000,0.753534413,0.000000000,0.000000000,9.800000000,0.993965628,0.000000000,0.000000000,0.109691983
0.283333288,0.000000000,0.000000000,0.746917846,-0.000000000,-0.000000000,9.800000000,0.993793735,0.000000000,0.000000000,0.111238538
0.287499954,0.000000000,0.000000000,0.746917846,0.000000000,0.000000000,9.800000000,0.993619436,0.000000000,0.000000000,0.112784824
0.291666620,0.000000000,0.000000000,0.746917846,-0.000000000,0.000000000,9.800000000,0.993442731,0.000000000,0.000000000,0.114330836
0.295833286,0.000000000,0.000000000,0.740013328,-0.000000000,0.000000000,9.800000000,0.993265287,0.000000000,0.000000000,0.115862285
0.304166618,0.000000000,0.000000000,0.732823521,-0.000000000,-0.000000000,9.800000000,0.992905099,0.000000000,0.000000000,0.118909479
0.308333284,0.000000000,0.000000000,0.732823521,-0.000000000,-0.000000000,9.800000000,0.992722401,0.000000000,0.000000000,0.120425224
0.312499950,0.000000000,0.000000000,0.732823521,-0.000000000,-0.000000000,9.800000000,0.992537389,0.000000000,0.000000000,0.121940687
0.316666616,0.000000000,0.000000000,0.732823521,-0.000000000,-0.000000000,9.800000000,0.992350064,0.000000000,0.000000000,0.123455867
0.320833282,0.000000000,0.000000000,0.732823521,-0.000000000,-0.000000000,9.800000000,0.992160425,0.000000000,0.000000000,0.124970758
0.329166614,0.000000000,0.000000000,0.725351196,-0.000000000,0.000000000,9.800000000,0.991778196,0.000000000,0.000000000,0.127968786
0.333333280,0.000000000,0.000000000,0.725351196,0.000000000,0.000000000,9.800000000,0.991583684,0.000000000,0.000000000,0.129467363
0.337499946,0.000000000,0.000000000,0.717599235,0.000000000,0.000000000,9.800000000,0.991389022,0.000000000,0.000000000,0.130949633
0.341666612,0.000000000,0.000000000,0.717599235,0.000000000,0.000000000,9.800000000,0.991192145,0.000000000,0.000000000,0.132431611
0.345833278,0.000000000,0.000000000,0.717599235,0.000000000,-0.000000000,9.800000000,0.990993052,0.000000000,0.000000000,0.133913293
0.354166610,0.000000000,0.000000000,0.709570626,0.000000000,-0.000000000,9.800000000,0.990590512,0.000000000,0.000000000,0.136859187
0.358333276,0.000000000,0.000000000,0.709570626,0.000000000,0.000000000,9.800000000,0.990387115,0.000000000,0.000000000,0.138323399
0.362499942,0.000000000,0.000000000,0.701268464,0.000000000,0.000000000,9.800000000,0.990183971,0.000000000,0.000000000,0.139770182
0.366666608,0.000000000,0.000000000,0.701268464,0.000000000,0.000000000,9.800000000,0.989978713,0.000000000,0.000000000,0.141216667
0.370833274,0.000000000,0.000000000,0.701268464,0.000000000,0.000000000,9.800000000,0.989771343,0.000000000,0.000000000,0.142662851
0.379166606,0.000000000,0.000000000,0.692695950,0.000000000,0.000000000,9.800000000,0.989355463,0.000000000,0.000000000,0.145518963
0.383333272,0.000000000,0.000000000,0.683856388,0.000000000,0.000000000,9.800000000,0.989147138,0.000000000,0.000000000,0.146928350
0.387499938,0.000000000,0.000000000,0.683856388,0.000000000,0.000000000,9.800000000,0.988936805,0.000000000,0.000000000,0.148337439
0.391666604,0.000000000,0.000000000,0.683856388,0.000000000,0.000000000,9.800000000,0.988724465,0.000000000,0.000000000,0.149746227
0.395833270,0.000000000,0.000000000,0.674753187,0.000000000,0.000000000,9.800000000,0.988512984,0.000000000,0.000000000,0.151135964
0.404166602,0.000000000,0.000000000,0.674753187,0.000000000,0.000000000,9.800000000,0.988084164,0.000000000,0.000000000,0.153914539
0.408333268,0.000000000,0.000000000,0.665389856,0.000000000,0.000000000,9.800000000,0.987869854,0.000000000,0.000000000,0.155284101
0.412499934,0.000000000,0.000000000,0.665389856,-0.000000000,0.000000000,9.800000000,0.987653645,0.000000000,0.000000000,0.156653365
0.416666600,0.000000000,0.000000000,0.665389856,0.000000000,0.000000000,9.800000000,0.987435539,0.000000000,0.000000000,0.158022328
0.420833266,0.000000000,0.000000000,0.665389856,-0.000000000,0.000000000,9.800000000,0.987215535,0.000000000,0.000000000,0.159390987
0.429166598,0.000000000,0.000000000,0.655770004,0.000000000,0.000000000,9.800000000,0.986776335,0.000000000,0.000000000,0.162087831
0.433333264,0.000000000,0.000000000,0.645897341,-0.000000000,-0.000000000,9.800000000,0.986557333,0.000000000,0.000000000,0.163415509
0.437499930,0.000000000,0.000000000,0.645897341,-0.000000000,-0.000000000,9.800000000,0.986336545,0.000000000,0.000000000,0.164742891
0.441666596,0.000000000,0.000000000,0.645897341,0.000000000,-0.000000000,9.800000000,0.986113971,0.000000000,0.000000000,0.166069975
0.445833262,0.000000000,0.000000000,0.635775672,0.000000000,0.000000000,9.800000000,0.985893141,0.000000000,0.000000000,0.167375969
0.454166594,0.000000000,0.000000000,0.635775672,0.000000000,0.000000000,9.800000000,0.985446292,0.000000000,0.000000000,0.169987074
0.458333260,0.000000000,0.000000000,0.625408899,0.000000000,0.000000000,9.800000000,0.985223974,0.000000000,0.000000000,0.171270901
0.462499926,0.000000000,0.000000000,0.625408899,0.000000000,-0.000000000,9.800000000,0.984999983,0.000000000,0.000000000,0.172554438
0.466666592,0.000000000,0.000000000,0.625408899,0.000000000,-0.000000000,9.800000000,0.984774319,0.000000000,0.000000000,0.173837683
0.470833258,0.000000000,0.000000000,0.614801020,0.000000000,0.000000000,9.800000000,0.984550854,0.000000000,0.000000000,0.175098873
0.479166590,0.000000000,0.000000000,0.614801020,0.000000000,-0.000000000,9.800000000,0.984099079,0.000000000,0.000000000,0.177620391
0.483333256,0.000000000,0.000000000,0.603956123,0.000000000,-0.000000000,9.800000000,0.983874810,0.000000000,0.000000000,0.178858485
0.487499922,0.000000000,0.000000000,0.603956123,0.000000000,0.000000000,9.800000000,0.983648984,0.000000000,0.000000000,0.180096295
0.491666588,0.000000000,0.000000000,0.603956123,0.000000000,0.000000000,9.800000000,0.983421601,0.000000000,0.000000000,0.181333820
0.495833254,0.000000000,0.000000000,0.603956123,0.000000000,0.000000000,9.800000000,0.983192661,0.000000000,0.000000000,0.182571058
0.504166586,0.000000000,0.000000000,0.592878389,0.000000000,-0.000000000,9.800000000,0.982738651,0.000000000,0.000000000,0.184999306
0.508333252,0.000000000,0.000000000,0.581572090,0.000000000,0.000000000,9.800000000,0.982513783,0.000000000,0.000000000,0.186189864
0.512499918,0.000000000,0.000000000,0.581572090,0.000000000,0.000000000,9.800000000,0.982287473,0.000000000,0.000000000,0.187380149
0.516666584,0.000000000,0.000000000,0.581572090,0.000000000,0.000000000,9.800000000,0.982059721,0.000000000,0.000000000,0.188570159
0.520833250,0.000000000,0.000000000,0.581572090,0.000000000,0.000000000,9.800000000,0.981830527,0.000000000,0.000000000,0.189759892
0.529166582,0.000000000,0.000000000,0.570041583,0.000000000,0.000000000,9.800000000,0.981372431,0.000000000,0.000000000,0.192114946
0.533333248,0.000000000,0.000000000,0.570041583,0.000000000,0.000000000,9.800000000,0.981143586,0.000000000,0.000000000,0.193280275
0.537499914,0.000000000,0.000000000,0.558291315,0.000000000,-0.000000000,9.800000000,0.980918116,0.000000000,0.000000000,0.194421318
0.541666580,0.000000000,0.000000000,0.558291315,0.000000000,-0.000000000,9.800000000,0.980691320,0.000000000,0.000000000,0.195562099
0.545833246,0.000000000,0.000000000,0.558291315,-0.000000000,-0.000000000,9.800000000,0.980463197,0.000000000,0.000000000,0.196702615
0.554166578,0.000000000,0.000000000,0.546325815,0.000000000,-0.000000000,9.800000000,0.980012892,0.000000000,0.000000000,0.198933988
0.558333244,0.000000000,0.000000000,0.534149696,0.000000000,0.000000000,9.800000000,0.979790909,0.000000000,0.000000000,0.200024435
0.562499910,0.000000000,0.000000000,0.534149696,0.000000000,0.000000000,9.800000000,0.979567713,0.000000000,0.000000000,0.201114633
0.566666576,0.000000000,0.000000000,0.534149696,0.000000000,0.000000000,9.800000000,0.979343304,0.000000000,0.000000000,0.202204583
0.570833242,0.000000000,0.000000000,0.521767652,0.000000000,-0.000000000,9.800000000,0.979122926,0.000000000,0.000000000,0.203269025
0.579166574,0.000000000,0.000000000,0.521767652,0.000000000,0.000000000,9.800000000,0.978678699,0.000000000,0.000000000,0.205397187
0.583333240,0.000000000,0.000000000,0.521767652,0.000000000,-0.000000000,9.800000000,0.978454851,0.000000000,0.000000000,0.206460905
0.587499906,0.000000000,0.000000000,0.509184457,0.000000000,0.000000000,9.800000000,0.978235286,0.000000000,0.000000000,0.207498734
0.591666572,0.000000000,0.000000000,0.509184457,-0.000000000,-0.000000000,9.800000000,0.978014621,0.000000000,0.000000000,0.208536330
0.595833238,0.000000000,0.000000000,0.496404962,-0.000000000,0.000000000,9.800000000,0.977798435,0.000000000,0.000000000,0.209547658
0.604166570,0.000000000,0.000000000,0.496404962,0.000000000,0.000000000,9.800000000,0.977362925,0.000000000,0.000000000,0.211569641
0.608333236,0.000000000,0.000000000,0.496404962,0.000000000,0.000000000,9.800000000,0.977143602,0.000000000,0.000000000,0.212580294
0.612499902,0.000000000,0.000000000,0.483434093,-0.000000000,-0.000000000,9.800000000,0.976929005,0.000000000,0.000000000,0.213564320
0.616666568,0.000000000,0.000000000,0.483434093,-0.000000000,-0.000000000,9.800000000,0.976713417,0.000000000,0.000000000,0.214548130
0.620833234,0.000000000,0.000000000,0.470276851,0.000000000,-0.000000000,9.800000000,0.976502747,0.000000000,0.000000000,0.215504955
0.629166566,0.000000000,0.000000000,0.470276851,0.000000000,-0.000000000,9.800000000,0.976078593,0.000000000,0.000000000,0.217417984
0.633333232,0.000000000,0.000000000,0.456938309,-0.000000000,-0.000000000,9.800000000,0.975871179,0.000000000,0.000000000,0.218347068
0.637499898,0.000000000,0.000000000,0.456938309,0.000000000,-0.000000000,9.800000000,0.975662880,0.000000000,0.000000000,0.219275954
0.641666564,0.000000000,0.000000000,0.456938309,0.000000000,-0.000000000,9.800000000,0.975453697,0.000000000,0.000000000,0.220204642
0.645833230,0.000000000,0.000000000,0.456938309,-0.000000000,-0.000000000,9.800000000,0.975243631,0.000000000,0.000000000,0.221133129
0.654166562,0.000000000,0.000000000,0.456938309,-0.000000000,-0.000000000,9.800000000,0.974820846,0.000000000,0.000000000,0.222989503
0.658333228,0.000000000,0.000000000,0.429737959,0.000000000,-0.000000000,9.800000000,0.974620816,0.000000000,0.000000000,0.223862158
0.662499894,0.000000000,0.000000000,0.429737959,0.000000000,-0.000000000,9.800000000,0.974420004,0.000000000,0.000000000,0.224734634
0.666666560,0.000000000,0.000000000,0.429737959,0.000000000,-0.000000000,9.800000000,0.974218411,0.000000000,0.000000000,0.225606930
0.670833226,0.000000000,0.000000000,0.415886638,-0.000000000,0.000000000,9.800000000,0.974022573,0.000000000,0.000000000,0.226450937
0.679166558,0.000000000,0.000000000,0.415886638,-0.000000000,-0.000000000,9.800000000,0.973628703,0.000000000,0.000000000,0.228138442
0.683333224,0.000000000,0.000000000,0.401874985,0.000000000,0.000000000,9.800000000,0.973437355,0.000000000,0.000000000,0.228953522
0.687499890,0.000000000,0.000000000,0.401874985,-0.000000000,0.000000000,9.800000000,0.973245325,0.000000000,0.000000000,0.229768442
0.691666556,0.000000000,0.000000000,0.401874985,0.000000000,0.000000000,9.800000000,0.973052613,0.000000000,0.000000000,0.230583201
0.695833222,0.000000000,0.000000000,0.387708401,-0.000000000,0.000000000,9.800000000,0.972866048,0.000000000,0.000000000,0.231369085
0.704166554,0.000000000,0.000000000,0.387708401,-0.000000000,-0.000000000,9.800000000,0.972491013,0.000000000,0.000000000,0.232940400
0.708333220,0.000000000,0.000000000,0.387708401,0.000000000,0.000000000,9.800000000,0.972302544,0.000000000,0.000000000,0.233725830
0.712499886,0.000000000,0.000000000,0.387708401,0.000000000,0.000000000,9.800000000,0.972113440,0.000000000,0.000000000,0.234511108
0.716666552,0.000000000,0.000000000,0.373392348,-0.000000000,-0.000000000,9.800000000,0.971930720,0.000000000,0.000000000,0.235267244
0.720833218,0.000000000,0.000000000,0.358932346,0.000000000,0.000000000,9.800000000,0.971754521,0.000000000,0.000000000,0.235993964
0.729166550,0.000000000,0.000000000,0.358932346,0.000000000,0.000000000,9.800000000,0.971400493,0.000000000,0.000000000,0.237447009
0.733333216,0.000000000,0.000000000,0.344333968,0.000000000,0.000000000,9.800000000,0.971229908,0.000000000,0.000000000,0.238143794
0.737499882,0.000000000,0.000000000,0.344333968,-0.000000000,0.000000000,9.800000000,0.971058822,0.000000000,0.000000000,0.238840456
0.741666548,0.000000000,0.000000000,0.344333968,0.000000000,0.000000000,9.800000000,0.970887237,0.000000000,0.000000000,0.239536995
0.745833214,0.000000000,0.000000000,0.344333968,0.000000000,0.000000000,9.800000000,0.970715153,0.000000000,0.000000000,0.240233412
0.754166546,0.000000000,0.000000000,0.329602844,0.000000000,0.000000000,9.800000000,0.970376900,0.000000000,0.000000000,0.241596092
0.758333212,0.000000000,0.000000000,0.314744651,-0.000000000,0.000000000,9.800000000,0.970218273,0.000000000,0.000000000,0.242232334
0.762499878,0.000000000,0.000000000,0.314744651,0.000000000,0.000000000,9.800000000,0.970059228,0.000000000,0.000000000,0.242868471
0.766666544,0.000000000,0.000000000,0.314744651,-0.000000000,0.000000000,9.800000000,0.969899766,0.000000000,0.000000000,0.243504504
0.770833210,0.000000000,0.000000000,0.299765118,0.000000000,0.000000000,9.800000000,0.969747506,0.000000000,0.000000000,0.244110169
0.779166542,0.000000000,0.000000000,0.299765118,0.000000000,0.000000000,9.800000000,0.969441851,0.000000000,0.000000000,0.245321214
0.783333208,0.000000000,0.000000000,0.299765118,0.000000000,0.000000000,9.800000000,0.969288456,0.000000000,0.000000000,0.245926592
0.787499874,0.000000000,0.000000000,0.284670019,0.000000000,0.000000000,9.800000000,0.969142436,0.000000000,0.000000000,0.246501398
0.791666540,0.000000000,0.000000000,0.284670019,0.000000000,0.000000000,9.800000000,0.968996075,0.000000000,0.000000000,0.247076116
0.795833206,0.000000000,0.000000000,0.269465176,0.000000000,0.000000000,9.800000000,0.968857217,0.000000000,0.000000000,0.247620058
0.804166538,0.000000000,0.000000000,0.269465176,0.000000000,0.000000000,9.800000000,0.968578586,0.000000000,0.000000000,0.248707707
0.808333204,0.000000000,0.000000000,0.254156448,0.000000000,0.000000000,9.800000000,0.968446761,0.000000000,0.000000000,0.249220527
0.812499870,0.000000000,0.000000000,0.254156448,0.000000000,0.000000000,9.800000000,0.968314665,0.000000000,0.000000000,0.249733277
0.816666536,0.000000000,0.000000000,0.254156448,0.000000000,0.000000000,9.800000000,0.968182297,0.000000000,0.000000000,0.250245958
0.820833202,0.000000000,0.000000000,0.238749738,-0.000000000,0.000000000,9.800000000,0.968057706,0.000000000,0.000000000,0.250727496
0.829166534,0.000000000,0.000000000,0.238749738,-0.000000000,0.000000000,9.800000000,0.967807806,0.000000000,0.000000000,0.251690387
0.833333200,0.000000000,0.000000000,0.238749738,-0.000000000,-0.000000000,9.800000000,0.967682497,0.000000000,0.000000000,0.252171738
0.837499866,0.000000000,0.000000000,0.223250986,0.000000000,0.000000000,9.800000000,0.967565105,0.000000000,0.000000000,0.252621786
0.841666532,0.000000000,0.000000000,0.223250986,0.000000000,0.000000000,9.800000000,0.967447505,0.000000000,0.000000000,0.253071779
0.845833198,0.000000000,0.000000000,0.207666166,0.000000000,0.000000000,9.800000000,0.967337926,0.000000000,0.000000000,0.253490310
0.854166530,0.000000000,0.000000000,0.207666166,0.000000000,0.000000000,9.800000000,0.967118225,0.000000000,0.000000000,0.254327229
0.858333196,0.000000000,0.000000000,0.192001287,-0.000000000,-0.000000000,9.800000000,0.967016416,0.000000000,0.000000000,0.254714059
0.862499862,0.000000000,0.000000000,0.192001287,0.000000000,0.000000000,9.800000000,0.966914452,0.000000000,0.000000000,0.255100847
0.866666528,0.000000000,0.000000000,0.192001287,-0.000000000,-0.000000000,9.800000000,0.966812334,0.000000000,0.000000000,0.255487595
0.870833194,0.000000000,0.000000000,0.176262388,0.000000000,0.000000000,9.800000000,0.966718450,0.000000000,0.000000000,0.255842604
0.879166526,0.000000000,0.000000000,0.176262388,0.000000000,0.000000000,9.800000000,0.966530292,0.000000000,0.000000000,0.256552519
0.883333192,0.000000000,0.000000000,0.176262388,0.000000000,0.000000000,9.800000000,0.966436017,0.000000000,0.000000000,0.256907424
0.887499858,0.000000000,0.000000000,0.176262388,0.000000000,0.000000000,9.800000000,0.966341612,0.000000000,0.000000000,0.257262295
0.891666524,0.000000000,0.000000000,0.160455536,-0.000000000,0.000000000,9.800000000,0.966255560,0.000000000,0.000000000,0.257585312
0.895833190,0.000000000,0.000000000,0.160455536,0.000000000,0.000000000,9.800000000,0.966169400,0.000000000,0.000000000,0.257908300
0.904166522,0.000000000,0.000000000,0.144586825,0.000000000,0.000000000,9.800000000,0.966013849,0.000000000,0.000000000,0.258490317
0.908333188,0.000000000,0.000000000,0.128662374,0.000000000,-0.000000000,9.800000000,0.965944527,0.000000000,0.000000000,0.258749244
0.912499854,0.000000000,0.000000000,0.128662374,0.000000000,-0.000000000,9.800000000,0.965875135,0.000000000,0.000000000,0.259008153
0.916666520,0.000000000,0.000000000,0.128662374,0.000000000,-0.000000000,9.800000000,0.965805674,0.000000000,0.000000000,0.259267043
0.920833186,0.000000000,0.000000000,0.128662374,0.000000000,-0.000000000,9.800000000,0.965736144,0.000000000,0.000000000,0.259525915
0.929166518,0.000000000,0.000000000,0.112688321,0.000000000,0.000000000,9.800000000,0.965614181,0.000000000,0.000000000,0.259979333
0.933333184,0.000000000,0.000000000,0.096670824,-0.000000000,-0.000000000,9.800000000,0.965561802,0.000000000,0.000000000,0.260173800
0.937499850,0.000000000,0.000000000,0.096670824,-0.000000000,0.000000000,9.800000000,0.965509384,0.000000000,0.000000000,0.260368256
0.941666516,0.000000000,0.000000000,0.096670824,0.000000000,-0.000000000,9.800000000,0.965456927,0.000000000,0.000000000,0.260562702
0.945833182,0.000000000,0.000000000,0.096670824,-0.000000000,-0.000000000,9.800000000,0.965404431,0.000000000,0.000000000,0.260757138
0.954166514,0.000000000,0.000000000,0.096670824,-0.000000000,-0.000000000,9.800000000,0.965299321,0.000000000,0.000000000,0.261145976
0.958333180,0.000000000,0.000000000,0.096670824,0.000000000,0.000000000,9.800000000,0.965246707,0.000000000,0.000000000,0.261340380
0.962499846,0.000000000,0.000000000,0.064530215,0.000000000,-0.000000000,9.800000000,0.965211564,0.000000000,0.000000000,0.261470143
0.966666512,0.000000000,0.000000000,0.064530215,0.000000000,-0.000000000,9.800000000,0.965176404,0.000000000,0.000000000,0.261599902
0.970833178,0.000000000,0.000000000,0.064530215,-0.000000000,-0.000000000,9.800000000,0.965141227,0.000000000,0.000000000,0.261729656
0.979166510,0.000000000,0.000000000,0.064530215,-0.000000000,-0.000000000,9.800000000,0.965070819,0.000000000,0.000000000,0.261989150
0.983333176,0.000000000,0.000000000,0.048419494,-0.000000000,-0.000000000,9.800000000,0.965044386,0.000000000,0.000000000,0.262086499
0.987499842,0.000000000,0.000000000,0.032290106,0.000000000,0.000000000,9.800000000,0.965026753,0.000000000,0.000000000,0.262151418
0.991666508,0.000000000,0.000000000,0.032290106,0.000000000,0.000000000,9.800000000,0.965009116,0.000000000,0.000000000,0.262216336
0.995833174,0.000000000,0.000000000,0.016148269,0.000000000,-0.000000000,9.800000000,0.965000294,0.000000000,0.000000000,0.262248801
1.004166506,0.000000000,0.000000000,0.016148269,0.000000000,0.000000000,9.800000000,0.964982646,0.000000000,0.000000000,0.262313730
1.008333172,0.000000000,0.000000000,0.016148269,0.000000000,-0.000000000,9.800000000,0.964973821,0.000000000,0.000000000,0.262346194
1.012499838,0.000000000,0.000000000,0.016148269,0.000000000,0.000000000,9.800000000,0.964964994,0.000000000,0.000000000,0.262378657
1.016666504,0.000000000,0.000000000,0.016148269,0.000000000,0.000000000,9.800000000,0.964956167,0.000000000,0.000000000,0.262411121
1.020833170,0.000000000,0.000000000,0.016148269,0.000000000,-0.000000000,9.800000000,0.964947338,0.000000000,0.000000000,0.262443584
1.029166502,0.000000000,0.000000000,0.016148269,0.000000000,-0.000000000,9.800000000,0.964929678,0.000000000,0.000000000,0.262508509
1.033333168,0.000000000,0.000000000,0.016148269,0.000000000,0.000000000,9.800000000,0.964920846,0.000000000,0.000000000,0.262540971
1.037499834,0.000000000,0.000000000,0.016148269,0.000000000,0.000000000,9.800000000,0.964912013,0.000000000,0.000000000,0.262573433
1.041666500,0.000000000,0.000000000,0.016148269,0.000000000,-0.000000000,9.800000000,0.964903179,0.000000000,0.000000000,0.262605895
1.045833166,0.000000000,0.000000000,0.016148269,0.000000000,0.000000000,9.800000000,0.964894343,0.000000000,0.000000000,0.262638356
1.054166498,0.000000000,0.000000000,0.016148269,0.000000000,-0.000000000,9.800000000,0.964876670,0.000000000,0.000000000,0.262703278
1.058333164,0.000000000,0.000000000,0.016148269,0.000000000,-0.000000000,9.800000000,0.964867831,0.000000000,0.000000000,0.262735738
1.062499830,0.000000000,0.000000000,0.016148269,0.000000000,0.000000000,9.800000000,0.964858992,0.000000000,0.000000000,0.262768199
1.066666496,0.000000000,0.000000000,-0.064529803,0.000000000,0.000000000,9.800000000,0.964894309,0.000000000,0.000000000,0.262638483
1.070833162,0.000000000,0.000000000,-0.064529803,0.000000000,0.000000000,9.800000000,0.964929608,0.000000000,0.000000000,0.262508764
1.079166494,0.000000000,0.000000000,-0.080615648,0.000000000,0.000000000,9.800000000,0.965008943,0.000000000,0.000000000,0.262216970
1.083333160,0.000000000,0.000000000,-0.080615648,0.000000000,-0.000000000,9.800000000,0.965052969,0.000000000,0.000000000,0.262054894
1.087499826,0.000000000,0.000000000,-0.096670414,0.000000000,-0.000000000,9.800000000,0.965105726,0.000000000,0.000000000,0.261860530
1.091666492,0.000000000,0.000000000,-0.096670414,-0.000000000,-0.000000000,9.800000000,0.965158445,0.000000000,0.000000000,0.261666156
1.095833158,0.000000000,0.000000000,-0.096670414,0.000000000,-0.000000000,9.800000000,0.965211124,0.000000000,0.000000000,0.261471771
1.104166490,0.000000000,0.000000000,-0.112687912,-0.000000000,0.000000000,9.800000000,0.965333787,0.000000000,0.000000000,0.261018543
1.108333156,0.000000000,0.000000000,-0.128661966,-0.000000000,0.000000000,9.800000000,0.965403717,0.000000000,0.000000000,0.260759780
1.112499822,0.000000000,0.000000000,-0.128661966,-0.000000000,0.000000000,9.800000000,0.965473578,0.000000000,0.000000000,0.260500999
1.116666488,0.000000000,0.000000000,-0.128661966,-0.000000000,0.000000000,9.800000000,0.965543369,0.000000000,0.000000000,0.260242198
1.120833154,0.000000000,0.000000000,-0.144586418,0.000000000,0.000000000,9.800000000,0.965621716,0.000000000,0.000000000,0.259951344
1.129166486,0.000000000,0.000000000,-0.144586418,0.000000000,0.000000000,9.800000000,0.965778147,0.000000000,0.000000000,0.259369564
1.133333152,0.000000000,0.000000000,-0.160455130,-0.000000000,-0.000000000,9.800000000,0.965864795,0.000000000,0.000000000,0.259046708
1.137499818,0.000000000,0.000000000,-0.160455130,0.000000000,0.000000000,9.800000000,0.965951336,0.000000000,0.000000000,0.258723823
1.141666484,0.000000000,0.000000000,-0.160455130,0.000000000,0.000000000,9.800000000,0.966037769,0.000000000,0.000000000,0.258400909
1.145833150,0.000000000,0.000000000,-0.176261984,0.000000000,0.000000000,9.800000000,0.966132591,0.000000000,0.000000000,0.258046150
1.154166482,0.000000000,0.000000000,-0.176261984,0.000000000,0.000000000,9.800000000,0.966321846,0.000000000,0.000000000,0.257336529
1.158333148,0.000000000,0.000000000,-0.192000885,0.000000000,0.000000000,9.800000000,0.966424704,0.000000000,0.000000000,0.256949978
1.162499814,0.000000000,0.000000000,-0.192000885,-0.000000000,0.000000000,9.800000000,0.966527407,0.000000000,0.000000000,0.256563386
1.166666480,0.000000000,0.000000000,-0.192000885,0.000000000,0.000000000,9.800000000,0.966629956,0.000000000,0.000000000,0.256176753
1.170833146,0.000000000,0.000000000,-0.192000885,0.000000000,0.000000000,9.800000000,0.966732350,0.000000000,0.000000000,0.255790078
1.179166478,0.000000000,0.000000000,-0.207665766,0.000000000,-0.000000000,9.800000000,0.966953316,0.000000000,0.000000000,0.254953494
1.183333144,0.000000000,0.000000000,-0.223250588,0.000000000,0.000000000,9.800000000,0.967071792,0.000000000,0.000000000,0.254503732
1.187499810,0.000000000,0.000000000,-0.223250588,0.000000000,0.000000000,9.800000000,0.967190058,0.000000000,0.000000000,0.254053914
1.191666476,0.000000000,0.000000000,-0.223250588,0.000000000,0.000000000,9.800000000,0.967308116,0.000000000,0.000000000,0.253604041
1.195833142,0.000000000,0.000000000,-0.223250588,0.000000000,0.000000000,9.800000000,0.967425964,0.000000000,0.000000000,0.253154113
1.204166474,0.000000000,0.000000000,-0.238749342,-0.000000000,-0.000000000,9.800000000,0.967677320,0.000000000,0.000000000,0.252191604
1.208333140,0.000000000,0.000000000,-0.238749342,-0.000000000,-0.000000000,9.800000000,0.967802639,0.000000000,0.000000000,0.251710255
1.212499806,0.000000000,0.000000000,-0.238749342,0.000000000,-0.000000000,9.800000000,0.967927718,0.000000000,0.000000000,0.251228844
1.216666472,0.000000000,0.000000000,-0.254156055,0.000000000,0.000000000,9.800000000,0.968060606,0.000000000,0.000000000,0.250716299
1.220833138,0.000000000,0.000000000,-0.269464785,-0.000000000,-0.000000000,9.800000000,0.968201202,0.000000000,0.000000000,0.250172805
1.229166470,0.000000000,0.000000000,-0.269464785,0.000000000,-0.000000000,9.800000000,0.968481478,0.000000000,0.000000000,0.249085581
1.233333136,0.000000000,0.000000000,-0.284669632,0.000000000,0.000000000,9.800000000,0.968629031,0.000000000,0.000000000,0.248511168
1.237499802,0.000000000,0.000000000,-0.284669632,0.000000000,0.000000000,9.800000000,0.968776243,0.000000000,0.000000000,0.247936667
1.241666468,0.000000000,0.000000000,-0.284669632,0.000000000,0.000000000,9.800000000,0.968923114,0.000000000,0.000000000,0.247362080
1.245833134,0.000000000,0.000000000,-0.284669632,0.000000000,0.000000000,9.800000000,0.969069645,0.000000000,0.000000000,0.246787405
1.254166466,0.000000000,0.000000000,-0.299764733,0.000000000,0.000000000,9.800000000,0.969377131,0.000000000,0.000000000,0.245576826
1.258333132,0.000000000,0.000000000,-0.299764733,0.000000000,0.000000000,9.800000000,0.969530307,0.000000000,0.000000000,0.244971393
1.262499798,0.000000000,0.000000000,-0.314744269,0.000000000,0.000000000,9.800000000,0.969690731,0.000000000,0.000000000,0.244335603
1.266666464,0.000000000,0.000000000,-0.314744269,0.000000000,0.000000000,9.800000000,0.969850737,0.000000000,0.000000000,0.243699707
1.270833130,0.000000000,0.000000000,-0.314744269,0.000000000,0.000000000,9.800000000,0.970010327,0.000000000,0.000000000,0.243063707
1.279166462,0.000000000,0.000000000,-0.314744269,0.000000000,0.000000000,9.800000000,0.970328255,0.000000000,0.000000000,0.241791394
1.283333128,0.000000000,0.000000000,-0.344333593,0.000000000,-0.000000000,9.800000000,0.970501457,0.000000000,0.000000000,0.241095256
1.287499794,0.000000000,0.000000000,-0.344333593,0.000000000,-0.000000000,9.800000000,0.970674160,0.000000000,0.000000000,0.240398993
1.291666460,0.000000000,0.000000000,-0.344333593,0.000000000,-0.000000000,9.800000000,0.970846363,0.000000000,0.000000000,0.239702607
1.295833126,0.000000000,0.000000000,-0.358931974,0.000000000,0.000000000,9.800000000,0.971025335,0.000000000,0.000000000,0.238976566
1.304166458,0.000000000,0.000000000,-0.358931974,-0.000000000,0.000000000,9.800000000,0.971381650,0.000000000,0.000000000,0.237524082
1.308333124,0.000000000,0.000000000,-0.373391980,0.000000000,0.000000000,9.800000000,0.971566126,0.000000000,0.000000000,0.236768373
1.312499790,0.000000000,0.000000000,-0.373391980,-0.000000000,0.000000000,9.800000000,0.971750014,0.000000000,0.000000000,0.236012520
1.316666456,0.000000000,0.000000000,-0.373391980,0.000000000,0.000000000,9.800000000,0.971933314,0.000000000,0.000000000,0.235256525
1.320833122,0.000000000,0.000000000,-0.387708036,0.000000000,0.000000000,9.800000000,0.972123020,0.000000000,0.000000000,0.234471393
1.329166454,0.000000000,0.000000000,-0.387708036,0.000000000,0.000000000,9.800000000,0.972500528,0.000000000,0.000000000,0.232900672
1.333333120,0.000000000,0.000000000,-0.387708036,-0.000000000,0.000000000,9.800000000,0.972688330,0.000000000,0.000000000,0.232115083
1.337499786,0.000000000,0.000000000,-0.401874624,0.000000000,-0.000000000,9.800000000,0.972882325,0.000000000,0.000000000,0.231300630
1.341666452,0.000000000,0.000000000,-0.401874624,0.000000000,-0.000000000,9.800000000,0.973075638,0.000000000,0.000000000,0.230486014
1.345833118,0.000000000,0.000000000,-0.401874624,0.000000000,-0.000000000,9.800000000,0.973268269,0.000000000,0.000000000,0.229671237
1.354166450,0.000000000,0.000000000,-0.415886281,0.000000000,-0.000000000,9.800000000,0.973664795,0.000000000,0.000000000,0.227984356
1.358333116,0.000000000,0.000000000,-0.429737607,-0.000000000,-0.000000000,9.800000000,0.973868516,0.000000000,0.000000000,0.227112556
1.362499782,0.000000000,0.000000000,-0.429737607,-0.000000000,-0.000000000,9.800000000,0.974071457,0.000000000,0.000000000,0.226240573
1.366666448,0.000000000,0.000000000,-0.429737607,0.000000000,0.000000000,9.800000000,0.974273617,0.000000000,0.000000000,0.225368410
1.370833114,0.000000000,0.000000000,-0.429737607,-0.000000000,-0.000000000,9.800000000,0.974474995,0.000000000,0.000000000,0.224496065
1.379166446,0.000000000,0.000000000,-0.443423260,0.000000000,0.000000000,9.800000000,0.974888110,0.000000000,0.000000000,0.222695247
1.383333112,0.000000000,0.000000000,-0.456937965,-0.000000000,-0.000000000,9.800000000,0.975099664,0.000000000,0.000000000,0.221767097
1.387499778,0.000000000,0.000000000,-0.456937965,-0.000000000,-0.000000000,9.800000000,0.975310334,0.000000000,0.000000000,0.220838747
1.391666444,0.000000000,0.000000000,-0.456937965,0.000000000,-0.000000000,9.800000000,0.975520120,0.000000000,0.000000000,0.219910196
1.395833110,0.000000000,0.000000000,-0.470276512,0.000000000,0.000000000,9.800000000,0.975735108,0.000000000,0.000000000,0.218954332
1.404166442,0.000000000,0.000000000,-0.470276512,0.000000000,0.000000000,9.800000000,0.976162272,0.000000000,0.000000000,0.217041975
1.408333108,0.000000000,0.000000000,-0.483433759,-0.000000000,0.000000000,9.800000000,0.976380371,0.000000000,0.000000000,0.216058720
1.412499774,0.000000000,0.000000000,-0.483433759,0.000000000,0.000000000,9.800000000,0.976597480,0.000000000,0.000000000,0.215075245
1.416666440,0.000000000,0.000000000,-0.483433759,0.000000000,0.000000000,9.800000000,0.976813599,0.000000000,0.000000000,0.214091553
1.420833106,0.000000000,0.000000000,-0.496404632,0.000000000,-0.000000000,9.800000000,0.977034485,0.000000000,0.000000000,0.213081241
1.429166438,0.000000000,0.000000000,-0.496404632,0.000000000,-0.000000000,9.800000000,0.977473122,0.000000000,0.000000000,0.211059935
1.433333104,0.000000000,0.000000000,-0.496404632,0.000000000,-0.000000000,9.800000000,0.977690872,0.000000000,0.000000000,0.210048943
1.437499770,0.000000000,0.000000000,-0.496404632,-0.000000000,-0.000000000,9.800000000,0.977907577,0.000000000,0.000000000,0.209037727
1.441666436,0.000000000,0.000000000,-0.509184133,-0.000000000,0.000000000,9.800000000,0.978128774,0.000000000,0.000000000,0.208000245
1.445833102,0.000000000,0.000000000,-0.521767333,0.000000000,0.000000000,9.800000000,0.978354295,0.000000000,0.000000000,0.206936881
1.454166434,0.000000000,0.000000000,-0.521767333,0.000000000,0.000000000,9.800000000,0.978801870,0.000000000,0.000000000,0.204809422
1.458333100,0.000000000,0.000000000,-0.521767333,0.000000000,0.000000000,9.800000000,0.979023923,0.000000000,0.000000000,0.203745329
1.462499766,0.000000000,0.000000000,-0.534149382,0.000000000,0.000000000,9.800000000,0.979250046,0.000000000,0.000000000,0.202655734
1.466666432,0.000000000,0.000000000,-0.534149382,0.000000000,0.000000000,9.800000000,0.979474958,0.000000000,0.000000000,0.201565889
1.470833098,0.000000000,0.000000000,-0.534149382,0.000000000,0.000000000,9.800000000,0.979698656,0.000000000,0.000000000,0.200475794
1.479166430,0.000000000,0.000000000,-0.546325506,0.000000000,-0.000000000,9.800000000,0.980152471,0.000000000,0.000000000,0.198245133
1.483333096,0.000000000,0.000000000,-0.558291012,-0.000000000,-0.000000000,9.800000000,0.980382388,0.000000000,0.000000000,0.197104978
1.487499762,0.000000000,0.000000000,-0.558291012,-0.000000000,-0.000000000,9.800000000,0.980610979,0.000000000,0.000000000,0.195964556
1.491666428,0.000000000,0.000000000,-0.558291012,0.000000000,-0.000000000,9.800000000,0.980838243,0.000000000,0.000000000,0.194823870
1.495833094,0.000000000,0.000000000,-0.570041285,0.000000000,0.000000000,9.800000000,0.981068922,0.000000000,0.000000000,0.193658903
1.504166426,0.000000000,0.000000000,-0.570041285,0.000000000,0.000000000,9.800000000,0.981526127,0.000000000,0.000000000,0.191328152
1.508333092,0.000000000,0.000000000,-0.581571797,0.000000000,0.000000000,9.800000000,0.981757221,0.000000000,0.000000000,0.190138787
1.512499758,0.000000000,0.000000000,-0.581571797,0.000000000,0.000000000,9.800000000,0.981986874,0.000000000,0.000000000,0.188949143
1.516666424,0.000000000,0.000000000,-0.581571797,0.000000000,0.000000000,9.800000000,0.982215086,0.000000000,0.000000000,0.187759222
1.520833090,0.000000000,0.000000000,-0.592878103,-0.000000000,0.000000000,9.800000000,0.982446250,0.000000000,0.000000000,0.186545884
1.529166422,0.000000000,0.000000000,-0.592878103,0.000000000,0.000000000,9.800000000,0.982904080,0.000000000,0.000000000,0.184118355
1.533333088,0.000000000,0.000000000,-0.592878103,0.000000000,0.000000000,9.800000000,0.983130747,0.000000000,0.000000000,0.182904169
1.537499754,0.000000000,0.000000000,-0.592878103,0.000000000,0.000000000,9.800000000,0.983355913,0.000000000,0.000000000,0.181689703
1.541666420,0.000000000,0.000000000,-0.603955842,0.000000000,0.000000000,9.800000000,0.983583744,0.000000000,0.000000000,0.180452261
1.545833086,0.000000000,0.000000000,-0.614800745,0.000000000,0.000000000,9.800000000,0.983814067,0.000000000,0.000000000,0.179192305
1.554166418,0.000000000,0.000000000,-0.614800745,0.000000000,0.000000000,9.800000000,0.984269870,0.000000000,0.000000000,0.176671514
1.558333084,0.000000000,0.000000000,-0.625408631,-0.000000000,0.000000000,9.800000000,0.984499225,0.000000000,0.000000000,0.175388925
1.562499750,0.000000000,0.000000000,-0.625408631,0.000000000,0.000000000,9.800000000,0.984726910,0.000000000,0.000000000,0.174106039
1.566666416,0.000000000,0.000000000,-0.625408631,0.000000000,0.000000000,9.800000000,0.984952923,0.000000000,0.000000000,0.172822857
1.570833082,0.000000000,0.000000000,-0.635775409,0.000000000,0.000000000,9.800000000,0.985180968,0.000000000,0.000000000,0.171518104
1.579166414,0.000000000,0.000000000,-0.635775409,0.000000000,0.000000000,9.800000000,0.985631873,0.000000000,0.000000000,0.168907698
1.583333080,0.000000000,0.000000000,-0.635775409,0.000000000,-0.000000000,9.800000000,0.985854732,0.000000000,0.000000000,0.167602049
1.587499746,0.000000000,0.000000000,-0.645897085,0.000000000,0.000000000,9.800000000,0.986079368,0.000000000,0.000000000,0.166275313
1.591666412,0.000000000,0.000000000,-0.645897085,0.000000000,0.000000000,9.800000000,0.986302218,0.000000000,0.000000000,0.164948276
1.595833078,0.000000000,0.000000000,-0.655769755,-0.000000000,-0.000000000,9.800000000,0.986526648,0.000000000,0.000000000,0.163600650
1.604166410,0.000000000,0.000000000,-0.655769755,-0.000000000,-0.000000000,9.800000000,0.986969983,0.000000000,0.000000000,0.160904483
1.608333076,0.000000000,0.000000000,-0.665389613,0.000000000,-0.000000000,9.800000000,0.987192085,0.000000000,0.000000000,0.159536163
1.612499742,0.000000000,0.000000000,-0.665389613,0.000000000,0.000000000,9.800000000,0.987412290,0.000000000,0.000000000,0.158167537
1.616666408,0.000000000,0.000000000,-0.665389613,0.000000000,0.000000000,9.800000000,0.987630597,0.000000000,0.000000000,0.156798607
1.620833074,0.000000000,0.000000000,-0.674752951,0.000000000,-0.000000000,9.800000000,0.987850039,0.000000000,0.000000000,0.155410105
1.629166406,0.000000000,0.000000000,-0.674752951,-0.000000000,-0.000000000,9.800000000,0.988283065,0.000000000,0.000000000,0.152632184
1.633333072,0.000000000,0.000000000,-0.683856159,-0.000000000,0.000000000,9.800000000,0.988499517,0.000000000,0.000000000,0.151224022
1.637499738,0.000000000,0.000000000,-0.683856159,-0.000000000,0.000000000,9.800000000,0.988713963,0.000000000,0.000000000,0.149815554
1.641666404,0.000000000,0.000000000,-0.683856159,0.000000000,0.000000000,9.800000000,0.988926401,0.000000000,0.000000000,0.148406782
1.645833070,0.000000000,0.000000000,-0.692695727,-0.000000000,0.000000000,9.800000000,0.989139540,0.000000000,0.000000000,0.146979492
1.654166402,0.000000000,0.000000000,-0.692695727,0.000000000,0.000000000,9.800000000,0.989559636,0.000000000,0.000000000,0.144123998
1.658333068,0.000000000,0.000000000,-0.701268248,-0.000000000,-0.000000000,9.800000000,0.989769141,0.000000000,0.000000000,0.142678123
1.662499734,0.000000000,0.000000000,-0.701268248,-0.000000000,-0.000000000,9.800000000,0.989976534,0.000000000,0.000000000,0.141231943
1.666666400,0.000000000,0.000000000,-0.701268248,-0.000000000,-0.000000000,9.800000000,0.990181814,0.000000000,0.000000000,0.139785461
1.670833066,0.000000000,0.000000000,-0.709570417,0.000000000,0.000000000,9.800000000,0.990387373,0.000000000,0.000000000,0.138321551
1.679166398,0.000000000,0.000000000,-0.709570417,0.000000000,0.000000000,9.800000000,0.990791997,0.000000000,0.000000000,0.135392828
1.683333064,0.000000000,0.000000000,-0.709570417,0.000000000,0.000000000,9.800000000,0.990991062,0.000000000,0.000000000,0.133928021
1.687499730,0.000000000,0.000000000,-0.717599033,0.000000000,-0.000000000,9.800000000,0.991190177,0.000000000,0.000000000,0.132446343
1.691666396,0.000000000,0.000000000,-0.717599033,0.000000000,-0.000000000,9.800000000,0.991387076,0.000000000,0.000000000,0.130964368
1.695833062,0.000000000,0.000000000,-0.725351002,0.000000000,-0.000000000,9.800000000,0.991583850,0.000000000,0.000000000,0.129466087
1.704166394,0.000000000,0.000000000,-0.725351002,0.000000000,0.000000000,9.800000000,0.991970606,0.000000000,0.000000000,0.126468641
1.708333060,0.000000000,0.000000000,-0.732823333,0.000000000,-0.000000000,9.800000000,0.992162531,0.000000000,0.000000000,0.124954038
1.712499726,0.000000000,0.000000000,-0.732823333,0.000000000,0.000000000,9.800000000,0.992352144,0.000000000,0.000000000,0.123439143
1.716666392,0.000000000,0.000000000,-0.732823333,0.000000000,0.000000000,9.800000000,0.992539444,0.000000000,0.000000000,0.121923961
1.720833058,0.000000000,0.000000000,-0.740013148,-0.000000000,0.000000000,9.800000000,0.992726234,0.000000000,0.000000000,0.120393625
1.729166390,0.000000000,0.000000000,-0.740013148,-0.000000000,0.000000000,9.800000000,0.993092734,0.000000000,0.000000000,0.117332098
1.733333056,0.000000000,0.000000000,-0.746917673,-0.000000000,0.000000000,9.800000000,0.993274110,0.000000000,0.000000000,0.115786626
1.737499722,0.000000000,0.000000000,-0.746917673,-0.000000000,-0.000000000,9.800000000,0.993453080,0.000000000,0.000000000,0.114240874
1.741666388,0.000000000,0.000000000,-0.746917673,0.000000000,-0.000000000,9.800000000,0.993629645,0.000000000,0.000000000,0.112694846
1.745833054,0.000000000,0.000000000,-0.753534247,-0.000000000,-0.000000000,9.800000000,0.993805336,0.000000000,0.000000000,0.111134846
1.754166386,0.000000000,0.000000000,-0.753534247,-0.000000000,0.000000000,9.800000000,0.994149370,0.000000000,0.000000000,0.108014027
1.758333052,0.000000000,0.000000000,-0.759860320,-0.000000000,0.000000000,9.800000000,0.994319115,0.000000000,0.000000000,0.106440112
1.762499718,0.000000000,0.000000000,-0.759860320,0.000000000,0.000000000,9.800000000,0.994486368,0.000000000,0.000000000,0.104865930
1.766666384,0.000000000,0.000000000,-0.759860320,-0.000000000,0.000000000,9.800000000,0.994651129,0.000000000,0.000000000,0.103291486
1.770833050,0.000000000,0.000000000,-0.765893452,-0.000000000,-0.000000000,9.800000000,0.994814676,0.000000000,0.000000000,0.101704279
1.779166382,0.000000000,0.000000000,-0.765893452,0.000000000,0.000000000,9.800000000,0.995134171,0.000000000,0.000000000,0.098529091
1.783333048,0.000000000,0.000000000,-0.771631318,-0.000000000,0.000000000,9.800000000,0.995291277,0.000000000,0.000000000,0.096929222
1.787499714,0.000000000,0.000000000,-0.771631318,-0.000000000,0.000000000,9.800000000,0.995445811,0.000000000,0.000000000,0.095329102
1.791666380,0.000000000,0.000000000,-0.771631318,-0.000000000,0.000000000,9.800000000,0.995597772,0.000000000,0.000000000,0.093728736
1.795833046,0.000000000,0.000000000,-0.771631318,-0.000000000,0.000000000,9.800000000,0.995747161,0.000000000,0.000000000,0.092128127
1.804166378,0.000000000,0.000000000,-0.777071705,0.000000000,0.000000000,9.800000000,0.996040233,0.000000000,0.000000000,0.088903621
1.808333044,0.000000000,0.000000000,-0.777071705,0.000000000,0.000000000,9.800000000,0.996182854,0.000000000,0.000000000,0.087291017
1.812499710,0.000000000,0.000000000,-0.782212517,0.000000000,0.000000000,9.800000000,0.996323781,0.000000000,0.000000000,0.085667513
1.816666376,0.000000000,0.000000000,-0.782212517,0.000000000,0.000000000,9.800000000,0.996462063,0.000000000,0.000000000,0.084043782
1.820833042,0.000000000,0.000000000,-0.782212517,0.000000000,-0.000000000,9.800000000,0.996597698,0.000000000,0.000000000,0.082419827
1.829166374,0.000000000,0.000000000,-0.787051770,-0.000000000,-0.000000000,9.800000000,0.996862625,0.000000000,0.000000000,0.079151165
1.833333040,0.000000000,0.000000000,-0.787051770,0.000000000,-0.000000000,9.800000000,0.996991068,0.000000000,0.000000000,0.077516513
1.837499706,0.000000000,0.000000000,-0.787051770,-0.000000000,-0.000000000,9.800000000,0.997116831,0.000000000,0.000000000,0.075881653
1.841666372,0.000000000,0.000000000,-0.791587601,-0.000000000,-0.000000000,9.800000000,0.997240615,0.000000000,0.000000000,0.074237164
1.845833038,0.000000000,0.000000000,-0.795818259,-0.000000000,-0.000000000,9.800000000,0.997362326,0.000000000,0.000000000,0.072583683
1.854166370,0.000000000,0.000000000,-0.795818259,0.000000000,-0.000000000,9.800000000,0.997597523,0.000000000,0.000000000,0.069276128
1.858333036,0.000000000,0.000000000,-0.799742115,-0.000000000,-0.000000000,9.800000000,0.997711561,0.000000000,0.000000000,0.067613906
1.862499702,0.000000000,0.000000000,-0.799742115,-0.000000000,-0.000000000,9.800000000,0.997822830,0.000000000,0.000000000,0.065951497
1.866666368,0.000000000,0.000000000,-0.799742115,0.000000000,-0.000000000,9.800000000,0.997931329,0.000000000,0.000000000,0.064288904
1.870833034,0.000000000,0.000000000,-0.799742115,0.000000000,0.000000000,9.800000000,0.998037057,0.000000000,0.000000000,0.062626133
1.879166366,0.000000000,0.000000000,-0.803357654,-0.000000000,0.000000000,9.800000000,0.998241095,0.000000000,0.000000000,0.059285036
1.883333032,0.000000000,0.000000000,-0.806663484,0.000000000,-0.000000000,9.800000000,0.998339317,0.000000000,0.000000000,0.057607361
1.887499698,0.000000000,0.000000000,-0.806663484,-0.000000000,-0.000000000,9.800000000,0.998434719,0.000000000,0.000000000,0.055929522
1.891666364,0.000000000,0.000000000,-0.806663484,-0.000000000,-0.000000000,9.800000000,0.998527302,0.000000000,0.000000000,0.054251526
1.895833030,0.000000000,0.000000000,-0.809658330,-0.000000000,0.000000000,9.800000000,0.998617392,0.000000000,0.000000000,0.052567146
1.904166362,0.000000000,0.000000000,-0.809658330,-0.000000000,0.000000000,9.800000000,0.998789048,0.000000000,0.000000000,0.049197942
1.908333028,0.000000000,0.000000000,-0.812341038,0.000000000,-0.000000000,9.800000000,0.998870879,0.000000000,0.000000000,0.047507544
1.912499694,0.000000000,0.000000000,-0.812341038,0.000000000,-0.000000000,9.800000000,0.998949849,0.000000000,0.000000000,0.045817011
1.916666360,0.000000000,0.000000000,-0.812341038,0.000000000,-0.000000000,9.800000000,0.999025958,0.000000000,0.000000000,0.044126347
1.920833026,0.000000000,0.000000000,-0.812341038,0.000000000,-0.000000000,9.800000000,0.999099206,0.000000000,0.000000000,0.042435556
1.929166358,0.000000000,0.000000000,-0.814710573,0.000000000,0.000000000,9.800000000,0.999237502,0.000000000,0.000000000,0.039043749
1.933333024,0.000000000,0.000000000,-0.816766021,0.000000000,0.000000000,9.800000000,0.999302492,0.000000000,0.000000000,0.037343395
1.937499690,0.000000000,0.000000000,-0.816766021,-0.000000000,-0.000000000,9.800000000,0.999364589,0.000000000,0.000000000,0.035642933
1.941666356,0.000000000,0.000000000,-0.816766021,0.000000000,0.000000000,9.800000000,0.999423792,0.000000000,0.000000000,0.033942368
1.945833022,0.000000000,0.000000000,-0.818506591,-0.000000000,0.000000000,9.800000000,0.999480218,0.000000000,0.000000000,0.032238080
1.954166354,0.000000000,0.000000000,-0.818506591,0.000000000,0.000000000,9.800000000,0.999584351,0.000000000,0.000000000,0.028829229
1.958333020,0.000000000,0.000000000,-0.819931610,0.000000000,0.000000000,9.800000000,0.999632139,0.000000000,0.000000000,0.027121707
1.962499686,0.000000000,0.000000000,-0.819931610,0.000000000,0.000000000,9.800000000,0.999677009,0.000000000,0.000000000,0.025414106
1.966666352,0.000000000,0.000000000,-0.819931610,0.000000000,0.000000000,9.800000000,0.999718963,0.000000000,0.000000000,0.023706431
1.970833018,0.000000000,0.000000000,-0.819931610,0.000000000,0.000000000,9.800000000,0.999758000,0.000000000,0.000000000,0.021998686
1.979166350,0.000000000,0.000000000,-0.821040531,0.000000000,0.000000000,9.800000000,0.999827407,0.000000000,0.000000000,0.018578391
1.983333016,0.000000000,0.000000000,-0.821040531,0.000000000,0.000000000,9.800000000,0.999857722,0.000000000,0.000000000,0.016868159
1.987499682,0.000000000,0.000000000,-0.821832925,0.000000000,-0.000000000,9.800000000,0.999885138,0.000000000,0.000000000,0.015156227
1.991666348,0.000000000,0.000000000,-0.821832925,0.000000000,-0.000000000,9.800000000,0.999909622,0.000000000,0.000000000,0.013444250
1.995833014,0.000000000,0.000000000,-0.821832925,0.000000000,-0.000000000,9.800000000,0.999931175,0.000000000,0.000000000,0.011732235
2.004166346,0.000000000,0.000000000,-0.822308487,0.000000000,-0.000000000,9.800000000,0.999965495,0.000000000,0.000000000,0.008307114
2.008333012,0.000000000,0.000000000,-0.822467033,-0.000000000,-0.000000000,9.800000000,0.999978261,0.000000000,0.000000000,0.006593689
2.012499678,0.000000000,0.000000000,-0.822467033,-0.000000000,-0.000000000,9.800000000,0.999988092,0.000000000,0.000000000,0.004880245
2.016666344,0.000000000,0.000000000,-0.822467033,-0.000000000,0.000000000,9.800000000,0.999994986,0.000000000,0.000000000,0.003166786
2.020833010,0.000000000,0.000000000,-0.822308503,-0.000000000,0.000000000,9.800000000,0.999998943,0.000000000,0.000000000,0.001453649
2.029166342,0.000000000,0.000000000,-0.822308503,-0.000000000,-0.000000000,9.800000000,0.999998054,0.000000000,0.000000000,-0.001972635
2.033333008,0.000000000,0.000000000,-0.822308503,-0.000000000,-0.000000000,9.800000000,0.999993208,0.000000000,0.000000000,-0.003685770
2.037499674,0.000000000,0.000000000,-0.821832958,-0.000000000,0.000000000,9.800000000,0.999985431,0.000000000,0.000000000,-0.005397904
2.041666340,0.000000000,0.000000000,-0.821832958,-0.000000000,0.000000000,9.800000000,0.999974723,0.000000000,0.000000000,-0.007110022
2.045833006,0.000000000,0.000000000,-0.821832958,-0.000000000,-0.000000000,9.800000000,0.999961084,0.000000000,0.000000000,-0.008822119
2.054166338,0.000000000,0.000000000,-0.821040580,-0.000000000,0.000000000,9.800000000,0.999925053,0.000000000,0.000000000,-0.012242929
2.058333004,0.000000000,0.000000000,-0.819931675,-0.000000000,0.000000000,9.800000000,0.999902680,0.000000000,0.000000000,-0.013950973
2.062499670,0.000000000,0.000000000,-0.819931675,-0.000000000,-0.000000000,9.800000000,0.999877391,0.000000000,0.000000000,-0.015658977
2.066666336,0.000000000,0.000000000,-0.819931675,0.000000000,0.000000000,9.800000000,0.999849183,0.000000000,0.000000000,-0.017366934
2.070833002,0.000000000,0.000000000,-0.818506672,0.000000000,-0.000000000,9.800000000,0.999818115,0.000000000,0.000000000,-0.019071873
2.079166334,0.000000000,0.000000000,-0.818506672,-0.000000000,-0.000000000,9.800000000,0.999747257,0.000000000,0.000000000,-0.022481579
2.083333000,0.000000000,0.000000000,-0.818506672,-0.000000000,-0.000000000,9.800000000,0.999707468,0.000000000,0.000000000,-0.024186337
2.087499666,0.000000000,0.000000000,-0.818506672,-0.000000000,-0.000000000,9.800000000,0.999664771,0.000000000,0.000000000,-0.025891024
2.091666332,0.000000000,0.000000000,-0.816766118,0.000000000,0.000000000,9.800000000,0.999619268,0.000000000,0.000000000,-0.027592011
2.095832998,0.000000000,0.000000000,-0.816766118,0.000000000,0.000000000,9.800000000,0.999570870,0.000000000,0.000000000,-0.029292918
2.104166330,0.000000000,0.000000000,-0.814710686,0.000000000,-0.000000000,9.800000000,0.999465533,0.000000000,0.000000000,-0.032690193
2.108332996,0.000000000,0.000000000,-0.812341167,0.000000000,-0.000000000,9.800000000,0.999408777,0.000000000,0.000000000,-0.034381618
2.112499662,0.000000000,0.000000000,-0.812341167,0.000000000,-0.000000000,9.800000000,0.999349160,0.000000000,0.000000000,-0.036072945
2.116666328,0.000000000,0.000000000,-0.812341167,-0.000000000,-0.000000000,9.800000000,0.999286679,0.000000000,0.000000000,-0.037764168
2.120832994,0.000000000,0.000000000,-0.809658476,0.000000000,0.000000000,9.800000000,0.999221558,0.000000000,0.000000000,-0.039449698
2.129166326,0.000000000,0.000000000,-0.809658476,0.000000000,0.000000000,9.800000000,0.999082785,0.000000000,0.000000000,-0.042820418
2.133332992,0.000000000,0.000000000,-0.809658476,0.000000000,0.000000000,9.800000000,0.999009135,0.000000000,0.000000000,-0.044505597
2.137499658,0.000000000,0.000000000,-0.809658476,0.000000000,0.000000000,9.800000000,0.998932642,0.000000000,0.000000000,-0.046190650
2.141666324,0.000000000,0.000000000,-0.809658476,0.000000000,0.000000000,9.800000000,0.998853307,0.000000000,0.000000000,-0.047875571
2.145832990,0.000000000,0.000000000,-0.809658476,0.000000000,0.000000000,9.800000000,0.998771130,0.000000000,0.000000000,-0.049560356
2.154166322,0.000000000,0.000000000,-0.803357831,0.000000000,0.000000000,9.800000000,0.998598946,0.000000000,0.000000000,-0.052916391
2.158332988,0.000000000,0.000000000,-0.799742308,0.000000000,-0.000000000,9.800000000,0.998509395,0.000000000,0.000000000,-0.054580112
2.162499654,0.000000000,0.000000000,-0.799742308,0.000000000,-0.000000000,9.800000000,0.998417071,0.000000000,0.000000000,-0.056243681
2.166666320,0.000000000,0.000000000,-0.799742308,0.000000000,-0.000000000,9.800000000,0.998321976,0.000000000,0.000000000,-0.057907095
2.170832986,0.000000000,0.000000000,-0.795818468,-0.000000000,-0.000000000,9.800000000,0.998224597,0.000000000,0.000000000,-0.059562187
2.179166318,0.000000000,0.000000000,-0.795818468,-0.000000000,0.000000000,9.800000000,0.998021607,0.000000000,0.000000000,-0.062871876
2.183332984,0.000000000,0.000000000,-0.791587825,0.000000000,0.000000000,9.800000000,0.997916565,0.000000000,0.000000000,-0.064517668
2.187499650,0.000000000,0.000000000,-0.791587825,0.000000000,-0.000000000,9.800000000,0.997808809,0.000000000,0.000000000,-0.066163285
2.191666316,0.000000000,0.000000000,-0.791587825,0.000000000,-0.000000000,9.800000000,0.997698340,0.000000000,0.000000000,-0.067808722
2.195832982,0.000000000,0.000000000,-0.791587825,0.000000000,-0.000000000,9.800000000,0.997585157,0.000000000,0.000000000,-0.069453974
2.204166314,0.000000000,0.000000000,-0.787052010,0.000000000,0.000000000,9.800000000,0.997351340,0.000000000,0.000000000,-0.072734483
2.208332980,0.000000000,0.000000000,-0.787052010,0.000000000,-0.000000000,9.800000000,0.997230737,0.000000000,0.000000000,-0.074369733
2.212499646,0.000000000,0.000000000,-0.782212772,0.000000000,-0.000000000,9.800000000,0.997108219,0.000000000,0.000000000,-0.075994730
2.216666312,0.000000000,0.000000000,-0.782212772,0.000000000,-0.000000000,9.800000000,0.996983054,0.000000000,0.000000000,-0.077619526
2.220832978,0.000000000,0.000000000,-0.777071976,-0.000000000,0.000000000,9.800000000,0.996856089,0.000000000,0.000000000,-0.079233439
2.229166310,0.000000000,0.000000000,-0.777071976,-0.000000000,0.000000000,9.800000000,0.996594322,0.000000000,0.000000000,-0.082460638
2.233332976,0.000000000,0.000000000,-0.771631604,0.000000000,-0.000000000,9.800000000,0.996460474,0.000000000,0.000000000,-0.084062622
2.237499642,0.000000000,0.000000000,-0.771631604,0.000000000,-0.000000000,9.800000000,0.996324050,0.000000000,0.000000000,-0.085664388
2.241666308,0.000000000,0.000000000,-0.771631604,0.000000000,0.000000000,9.800000000,0.996185052,0.000000000,0.000000000,-0.087265933
2.245832974,0.000000000,0.000000000,-0.765893753,0.000000000,0.000000000,9.800000000,0.996044541,0.000000000,0.000000000,-0.088855345
2.254166306,0.000000000,0.000000000,-0.765893753,0.000000000,0.000000000,9.800000000,0.995755912,0.000000000,0.000000000,-0.092033488
2.258332972,0.000000000,0.000000000,-0.759860636,0.000000000,-0.000000000,9.800000000,0.995608972,0.000000000,0.000000000,-0.093609697
2.262499638,0.000000000,0.000000000,-0.759860636,0.000000000,-0.000000000,9.800000000,0.995459536,0.000000000,0.000000000,-0.095185670
2.266666304,0.000000000,0.000000000,-0.759860636,0.000000000,-0.000000000,9.800000000,0.995307606,0.000000000,0.000000000,-0.096761405
2.270832970,0.000000000,0.000000000,-0.759860636,0.000000000,-0.000000000,9.800000000,0.995153181,0.000000000,0.000000000,-0.098336898
2.279166302,0.000000000,0.000000000,-0.753534579,0.000000000,0.000000000,9.800000000,0.994839526,0.000000000,0.000000000,-0.101460917
2.283332968,0.000000000,0.000000000,-0.746918019,0.000000000,-0.000000000,9.800000000,0.994680440,0.000000000,0.000000000,-0.103008843
2.287499634,0.000000000,0.000000000,-0.746918019,0.000000000,-0.000000000,9.800000000,0.994518946,0.000000000,0.000000000,-0.104556519
2.291666300,0.000000000,0.000000000,-0.746918019,0.000000000,-0.000000000,9.800000000,0.994355044,0.000000000,0.000000000,-0.106103941
2.295832966,0.000000000,0.000000000,-0.740013508,0.000000000,0.000000000,9.800000000,0.994190283,0.000000000,0.000000000,-0.107636806
2.304166298,0.000000000,0.000000000,-0.740013508,0.000000000,0.000000000,9.800000000,0.993853671,0.000000000,0.000000000,-0.110701765
2.308332964,0.000000000,0.000000000,-0.740013508,0.000000000,0.000000000,9.800000000,0.993681822,0.000000000,0.000000000,-0.112233852
2.312499630,0.000000000,0.000000000,-0.732823709,-0.000000000,0.000000000,9.800000000,0.993509314,0.000000000,0.000000000,-0.113750790
2.316666296,0.000000000,0.000000000,-0.732823709,-0.000000000,-0.000000000,9.800000000,0.993334491,0.000000000,0.000000000,-0.115267464
2.320832962,0.000000000,0.000000000,-0.725351391,-0.000000000,0.000000000,9.800000000,0.993159171,0.000000000,0.000000000,-0.116768407
2.329166294,0.000000000,0.000000000,-0.725351391,-0.000000000,0.000000000,9.800000000,0.992801727,0.000000000,0.000000000,-0.119769491
2.333332960,0.000000000,0.000000000,-0.717599437,-0.000000000,-0.000000000,9.800000000,0.992621562,0.000000000,0.000000000,-0.121253594
2.337499626,0.000000000,0.000000000,-0.717599437,-0.000000000,-0.000000000,9.800000000,0.992439179,0.000000000,0.000000000,-0.122737426
2.341666292,0.000000000,0.000000000,-0.717599437,-0.000000000,-0.000000000,9.800000000,0.992254578,0.000000000,0.000000000,-0.124220983
2.345832958,0.000000000,0.000000000,-0.717599437,-0.000000000,-0.000000000,9.800000000,0.992067759,0.000000000,0.000000000,-0.125704263
2.354166290,0.000000000,0.000000000,-0.709570835,-0.000000000,-0.000000000,9.800000000,0.991691773,0.000000000,0.000000000,-0.128636802
2.358332956,0.000000000,0.000000000,-0.709570835,-0.000000000,-0.000000000,9.800000000,0.991500530,0.000000000,0.000000000,-0.130102652
2.362499622,0.000000000,0.000000000,-0.709570835,-0.000000000,-0.000000000,9.800000000,0.991307119,0.000000000,0.000000000,-0.131568217
2.366666288,0.000000000,0.000000000,-0.709570835,-0.000000000,-0.000000000,9.800000000,0.991111542,0.000000000,0.000000000,-0.133033494
2.370832954,0.000000000,0.000000000,-0.709570835,-0.000000000,-0.000000000,9.800000000,0.990913800,0.000000000,0.000000000,-0.134498481
2.379166286,0.000000000,0.000000000,-0.692696173,0.000000000,0.000000000,9.800000000,0.990519026,0.000000000,0.000000000,-0.137375616
2.383332952,0.000000000,0.000000000,-0.692696173,0.000000000,0.000000000,9.800000000,0.990319745,0.000000000,0.000000000,-0.138804907
2.387499618,0.000000000,0.000000000,-0.683856618,-0.000000000,-0.000000000,9.800000000,0.990120985,0.000000000,0.000000000,-0.140215675
2.391666284,0.000000000,0.000000000,-0.683856618,-0.000000000,-0.000000000,9.800000000,0.989920215,0.000000000,0.000000000,-0.141626159
2.395832950,0.000000000,0.000000000,-0.674753424,0.000000000,0.000000000,9.800000000,0.989720148,0.000000000,0.000000000,-0.143017585
2.404166282,0.000000000,0.000000000,-0.674753424,0.000000000,-0.000000000,9.800000000,0.989314147,0.000000000,0.000000000,-0.145799587
2.408332948,0.000000000,0.000000000,-0.665390099,0.000000000,0.000000000,9.800000000,0.989111084,0.000000000,0.000000000,-0.147170862
2.412499614,0.000000000,0.000000000,-0.665390099,0.000000000,0.000000000,9.800000000,0.988906122,0.000000000,0.000000000,-0.148541855
2.416666280,0.000000000,0.000000000,-0.665390099,-0.000000000,0.000000000,9.800000000,0.988699258,0.000000000,0.000000000,-0.149912562
2.420832946,0.000000000,0.000000000,-0.655770254,0.000000000,-0.000000000,9.800000000,0.988493527,0.000000000,0.000000000,-0.151263171
2.429166278,0.000000000,0.000000000,-0.655770254,0.000000000,-0.000000000,9.800000000,0.988076530,0.000000000,0.000000000,-0.153963539
2.433332944,0.000000000,0.000000000,-0.655770254,0.000000000,0.000000000,9.800000000,0.987865265,0.000000000,0.000000000,-0.155313293
2.437499610,0.000000000,0.000000000,-0.645897597,-0.000000000,0.000000000,9.800000000,0.987655378,0.000000000,0.000000000,-0.156642443
2.441666276,0.000000000,0.000000000,-0.645897597,-0.000000000,0.000000000,9.800000000,0.987443702,0.000000000,0.000000000,-0.157971309
2.445832942,0.000000000,0.000000000,-0.645897597,-0.000000000,-0.000000000,9.800000000,0.987230239,0.000000000,0.000000000,-0.159299889
2.454166274,0.000000000,0.000000000,-0.635775934,-0.000000000,-0.000000000,9.800000000,0.986804780,0.000000000,0.000000000,-0.161914565
2.458332940,0.000000000,0.000000000,-0.625409168,-0.000000000,0.000000000,9.800000000,0.986592978,0.000000000,0.000000000,-0.163200171
2.462499606,0.000000000,0.000000000,-0.625409168,-0.000000000,0.000000000,9.800000000,0.986379501,0.000000000,0.000000000,-0.164485499
2.466666272,0.000000000,0.000000000,-0.625409168,-0.000000000,0.000000000,9.800000000,0.986164350,0.000000000,0.000000000,-0.165770548
2.470832938,0.000000000,0.000000000,-0.614801294,0.000000000,0.000000000,9.800000000,0.985951216,0.000000000,0.000000000,-0.167033526
2.479166270,0.000000000,0.000000000,-0.614801294,0.000000000,0.000000000,9.800000000,0.985520097,0.000000000,0.000000000,-0.169558659
2.483332936,0.000000000,0.000000000,-0.603956403,-0.000000000,0.000000000,9.800000000,0.985305971,0.000000000,0.000000000,-0.170798547
2.487499602,0.000000000,0.000000000,-0.603956403,-0.000000000,0.000000000,9.800000000,0.985090285,0.000000000,0.000000000,-0.172038165
2.491666268,0.000000000,0.000000000,-0.603956403,-0.000000000,0.000000000,9.800000000,0.984873040,0.000000000,0.000000000,-0.173277511
2.495832934,0.000000000,0.000000000,-0.592878676,0.000000000,0.000000000,9.800000000,0.984658262,0.000000000,0.000000000,-0.174493858
2.504166266,0.000000000,0.000000000,-0.592878676,0.000000000,0.000000000,9.800000000,0.984224201,0.000000000,0.000000000,-0.176925751
2.508332932,0.000000000,0.000000000,-0.581572382,0.000000000,0.000000000,9.800000000,0.984009114,0.000000000,0.000000000,-0.178118116
2.512499598,0.000000000,0.000000000,-0.581572382,-0.000000000,-0.000000000,9.800000000,0.983792582,0.000000000,0.000000000,-0.179310219
2.516666264,0.000000000,0.000000000,-0.581572382,-0.000000000,-0.000000000,9.800000000,0.983574607,0.000000000,0.000000000,-0.180502059
2.520832930,0.000000000,0.000000000,-0.570041881,-0.000000000,0.000000000,9.800000000,0.983359551,0.000000000,0.000000000,-0.181670012
2.529166262,0.000000000,0.000000000,-0.570041881,-0.000000000,0.000000000,9.800000000,0.982925280,0.000000000,0.000000000,-0.184005148
2.533332928,0.000000000,0.000000000,-0.558291619,0.000000000,0.000000000,9.800000000,0.982710597,0.000000000,0.000000000,-0.185148270
2.537499594,0.000000000,0.000000000,-0.558291619,0.000000000,0.000000000,9.800000000,0.982494585,0.000000000,0.000000000,-0.186291143
2.541666260,0.000000000,0.000000000,-0.558291619,0.000000000,0.000000000,9.800000000,0.982277244,0.000000000,0.000000000,-0.187433763
2.545832926,0.000000000,0.000000000,-0.546326124,-0.000000000,0.000000000,9.800000000,0.982063275,0.000000000,0.000000000,-0.188551649
2.554166258,0.000000000,0.000000000,-0.546326124,0.000000000,0.000000000,9.800000000,0.981631520,0.000000000,0.000000000,-0.190786687
2.558332924,0.000000000,0.000000000,-0.546326124,-0.000000000,0.000000000,9.800000000,0.981413734,0.000000000,0.000000000,-0.191903836
2.562499590,0.000000000,0.000000000,-0.546326124,0.000000000,0.000000000,9.800000000,0.981194678,0.000000000,0.000000000,-0.193020736
2.566666256,0.000000000,0.000000000,-0.534150010,-0.000000000,-0.000000000,9.800000000,0.980979274,0.000000000,0.000000000,-0.194112502
2.570832922,0.000000000,0.000000000,-0.521767972,-0.000000000,0.000000000,9.800000000,0.980767691,0.000000000,0.000000000,-0.195178727
2.579166254,0.000000000,0.000000000,-0.521767972,-0.000000000,-0.000000000,9.800000000,0.980341049,0.000000000,0.000000000,-0.197310486
2.583332920,0.000000000,0.000000000,-0.509184782,0.000000000,-0.000000000,9.800000000,0.980131190,0.000000000,0.000000000,-0.198350322
2.587499586,0.000000000,0.000000000,-0.509184782,0.000000000,-0.000000000,9.800000000,0.979920228,0.000000000,0.000000000,-0.199389934
2.591666252,0.000000000,0.000000000,-0.509184782,0.000000000,0.000000000,9.800000000,0.979708164,0.000000000,0.000000000,-0.200429323
2.595832918,0.000000000,0.000000000,-0.496405292,0.000000000,0.000000000,9.800000000,0.979500361,0.000000000,0.000000000,-0.201442408
2.604166250,0.000000000,0.000000000,-0.496405292,0.000000000,0.000000000,9.800000000,0.979081611,0.000000000,0.000000000,-0.203467930
2.608332916,0.000000000,0.000000000,-0.483434428,-0.000000000,0.000000000,9.800000000,0.978876191,0.000000000,0.000000000,-0.204453913
2.612499582,0.000000000,0.000000000,-0.483434428,-0.000000000,0.000000000,9.800000000,0.978669778,0.000000000,0.000000000,-0.205439689
2.616666248,0.000000000,0.000000000,-0.483434428,-0.000000000,0.000000000,9.800000000,0.978462372,0.000000000,0.000000000,-0.206425257
2.620832914,0.000000000,0.000000000,-0.483434428,0.000000000,0.000000000,9.800000000,0.978253973,0.000000000,0.000000000,-0.207410615
2.629166246,0.000000000,0.000000000,-0.470277190,0.000000000,0.000000000,9.800000000,0.977839939,0.000000000,0.000000000,-0.209353896
2.633332912,0.000000000,0.000000000,-0.456938653,0.000000000,0.000000000,9.800000000,0.977640200,0.000000000,0.000000000,-0.210284661
2.637499578,0.000000000,0.000000000,-0.456938653,-0.000000000,-0.000000000,9.800000000,0.977439576,0.000000000,0.000000000,-0.211215236
2.641666244,0.000000000,0.000000000,-0.456938653,-0.000000000,0.000000000,9.800000000,0.977238065,0.000000000,0.000000000,-0.212145619
2.645832910,0.000000000,0.000000000,-0.443423956,0.000000000,-0.000000000,9.800000000,0.977041668,0.000000000,0.000000000,-0.213048301
2.654166242,0.000000000,0.000000000,-0.443423956,0.000000000,-0.000000000,9.800000000,0.976646373,0.000000000,0.000000000,-0.214853118
2.658332908,0.000000000,0.000000000,-0.443423956,0.000000000,-0.000000000,9.800000000,0.976447475,0.000000000,0.000000000,-0.215755251
2.662499574,0.000000000,0.000000000,-0.429738312,-0.000000000,-0.000000000,9.800000000,0.976253921,0.000000000,0.000000000,-0.216629367
2.666666240,0.000000000,0.000000000,-0.429738312,0.000000000,-0.000000000,9.800000000,0.976059584,0.000000000,0.000000000,-0.217503308
2.670832906,0.000000000,0.000000000,-0.429738312,0.000000000,0.000000000,9.800000000,0.975864464,0.000000000,0.000000000,-0.218377075
2.679166238,0.000000000,0.000000000,-0.415886995,-0.000000000,-0.000000000,9.800000000,0.975484582,0.000000000,0.000000000,-0.220067785
2.683332904,0.000000000,0.000000000,-0.401875345,0.000000000,0.000000000,9.800000000,0.975299991,0.000000000,0.000000000,-0.220884423
2.687499570,0.000000000,0.000000000,-0.401875345,0.000000000,0.000000000,9.800000000,0.975114716,0.000000000,0.000000000,-0.221700906
2.691666236,0.000000000,0.000000000,-0.401875345,0.000000000,0.000000000,9.800000000,0.974928757,0.000000000,0.000000000,-0.222517233
2.695832902,0.000000000,0.000000000,-0.387708766,-0.000000000,-0.000000000,9.800000000,0.974748706,0.000000000,0.000000000,-0.223304636
2.704166234,0.000000000,0.000000000,-0.387708766,0.000000000,0.000000000,9.800000000,0.974386696,0.000000000,0.000000000,-0.224879005
2.708332900,0.000000000,0.000000000,-0.373392717,0.000000000,0.000000000,9.800000000,0.974211467,0.000000000,0.000000000,-0.225636913
2.712499566,0.000000000,0.000000000,-0.373392717,0.000000000,-0.000000000,9.800000000,0.974035649,0.000000000,0.000000000,-0.226394685
2.716666232,0.000000000,0.000000000,-0.373392717,0.000000000,0.000000000,9.800000000,0.973859242,0.000000000,0.000000000,-0.227152321
2.720832898,0.000000000,0.000000000,-0.373392717,0.000000000,0.000000000,9.800000000,0.973682245,0.000000000,0.000000000,-0.227909818
2.729166230,0.000000000,0.000000000,-0.373392717,0.000000000,0.000000000,9.800000000,0.973326484,0.000000000,0.000000000,-0.229424399
2.733332896,0.000000000,0.000000000,-0.373392717,0.000000000,0.000000000,9.800000000,0.973147720,0.000000000,0.000000000,-0.230181482
2.737499562,0.000000000,0.000000000,-0.344334344,-0.000000000,0.000000000,9.800000000,0.972982346,0.000000000,0.000000000,-0.230879523
2.741666228,0.000000000,0.000000000,-0.329603222,0.000000000,0.000000000,9.800000000,0.972823578,0.000000000,0.000000000,-0.231547589
2.745832894,0.000000000,0.000000000,-0.329603222,0.000000000,-0.000000000,9.800000000,0.972664351,0.000000000,0.000000000,-0.232215547
2.754166226,0.000000000,0.000000000,-0.329603222,0.000000000,-0.000000000,9.800000000,0.972344522,0.000000000,0.000000000,-0.233551132
2.758332892,0.000000000,0.000000000,-0.314745033,0.000000000,0.000000000,9.800000000,0.972191169,0.000000000,0.000000000,-0.234188667
2.762499558,0.000000000,0.000000000,-0.314745033,0.000000000,0.000000000,9.800000000,0.972037398,0.000000000,0.000000000,-0.234826100
2.766666224,0.000000000,0.000000000,-0.314745033,0.000000000,0.000000000,9.800000000,0.971883209,0.000000000,0.000000000,-0.235463433
2.770832890,0.000000000,0.000000000,-0.314745033,0.000000000,0.000000000,9.800000000,0.971728602,0.000000000,0.000000000,-0.236100664
2.779166222,0.000000000,0.000000000,-0.299765503,0.000000000,-0.000000000,9.800000000,0.971432949,0.000000000,0.000000000,-0.237314191
2.783332888,0.000000000,0.000000000,-0.284670407,-0.000000000,-0.000000000,9.800000000,0.971292036,0.000000000,0.000000000,-0.237890270
2.787499554,0.000000000,0.000000000,-0.284670407,-0.000000000,-0.000000000,9.800000000,0.971150781,0.000000000,0.000000000,-0.238466266
2.791666220,0.000000000,0.000000000,-0.284670407,-0.000000000,0.000000000,9.800000000,0.971009185,0.000000000,0.000000000,-0.239042178
2.795832886,0.000000000,0.000000000,-0.284670407,-0.000000000,0.000000000,9.800000000,0.970867247,0.000000000,0.000000000,-0.239618005
2.804166218,0.000000000,0.000000000,-0.284670407,-0.000000000,0.000000000,9.800000000,0.970582347,0.000000000,0.000000000,-0.240769408
2.808332884,0.000000000,0.000000000,-0.254156841,-0.000000000,-0.000000000,9.800000000,0.970454725,0.000000000,0.000000000,-0.241283291
2.812499550,0.000000000,0.000000000,-0.254156841,-0.000000000,-0.000000000,9.800000000,0.970326831,0.000000000,0.000000000,-0.241797107
2.816666216,0.000000000,0.000000000,-0.254156841,0.000000000,-0.000000000,9.800000000,0.970198665,0.000000000,0.000000000,-0.242310854
2.820832882,0.000000000,0.000000000,-0.254156841,-0.000000000,-0.000000000,9.800000000,0.970070227,0.000000000,0.000000000,-0.242824534
2.829166214,0.000000000,0.000000000,-0.238750134,0.000000000,-0.000000000,9.800000000,0.969820362,0.000000000,0.000000000,-0.243820561
2.833332880,0.000000000,0.000000000,-0.238750134,0.000000000,0.000000000,9.800000000,0.969698966,0.000000000,0.000000000,-0.244302915
2.837499546,0.000000000,0.000000000,-0.223251384,0.000000000,0.000000000,9.800000000,0.969585235,0.000000000,0.000000000,-0.244753903
2.841666212,0.000000000,0.000000000,-0.223251384,0.000000000,0.000000000,9.800000000,0.969471293,0.000000000,0.000000000,-0.245204837
2.845832878,0.000000000,0.000000000,-0.223251384,0.000000000,-0.000000000,9.800000000,0.969357142,0.000000000,0.000000000,-0.245655719
2.854166210,0.000000000,0.000000000,-0.207666566,-0.000000000,0.000000000,9.800000000,0.969144218,0.000000000,0.000000000,-0.246494389
2.858332876,0.000000000,0.000000000,-0.207666566,-0.000000000,0.000000000,9.800000000,0.969037485,0.000000000,0.000000000,-0.246913655
2.862499542,0.000000000,0.000000000,-0.192001689,-0.000000000,-0.000000000,9.800000000,0.968938641,0.000000000,0.000000000,-0.247301254
2.866666208,0.000000000,0.000000000,-0.192001689,-0.000000000,-0.000000000,9.800000000,0.968839642,0.000000000,0.000000000,-0.247688813
2.870832874,0.000000000,0.000000000,-0.176262791,0.000000000,0.000000000,9.800000000,0.968748622,0.000000000,0.000000000,-0.248044568
2.879166206,0.000000000,0.000000000,-0.160455941,0.000000000,-0.000000000,9.800000000,0.968574381,0.000000000,0.000000000,-0.248724081
2.883332872,0.000000000,0.000000000,-0.160455941,-0.000000000,-0.000000000,9.800000000,0.968491182,0.000000000,0.000000000,-0.249047846
2.887499538,0.000000000,0.000000000,-0.160455941,0.000000000,-0.000000000,9.800000000,0.968407876,0.000000000,0.000000000,-0.249371582
2.891666204,0.000000000,0.000000000,-0.160455941,-0.000000000,-0.000000000,9.800000000,0.968324461,0.000000000,0.000000000,-0.249695291
2.895832870,0.000000000,0.000000000,-0.160455941,0.000000000,-0.000000000,9.800000000,0.968240938,0.000000000,0.000000000,-0.250018971
2.904166202,0.000000000,0.000000000,-0.144587232,0.000000000,0.000000000,9.800000000,0.968081854,0.000000000,0.000000000,-0.250634244
2.908332868,0.000000000,0.000000000,-0.128662782,0.000000000,0.000000000,9.800000000,0.968014637,0.000000000,0.000000000,-0.250893727
2.912499534,0.000000000,0.000000000,-0.128662782,0.000000000,0.000000000,9.800000000,0.967947351,0.000000000,0.000000000,-0.251153192
2.916666200,0.000000000,0.000000000,-0.128662782,0.000000000,0.000000000,9.800000000,0.967879995,0.000000000,0.000000000,-0.251412639
2.920832866,0.000000000,0.000000000,-0.112688731,-0.000000000,0.000000000,9.800000000,0.967820945,0.000000000,0.000000000,-0.251639859
2.929166198,0.000000000,0.000000000,-0.112688731,0.000000000,0.000000000,9.800000000,0.967702684,0.000000000,0.000000000,-0.252094258
2.933332864,0.000000000,0.000000000,-0.096671235,0.000000000,0.000000000,9.800000000,0.967651893,0.000000000,0.000000000,-0.252289147
2.937499530,0.000000000,0.000000000,-0.096671235,0.000000000,0.000000000,9.800000000,0.967601063,0.000000000,0.000000000,-0.252484025
2.941666196,0.000000000,0.000000000,-0.096671235,0.000000000,0.000000000,9.800000000,0.967550193,0.000000000,0.000000000,-0.252678894
2.945832862,0.000000000,0.000000000,-0.080616471,0.000000000,0.000000000,9.800000000,0.967507742,0.000000000,0.000000000,-0.252841391
2.954166194,0.000000000,0.000000000,-0.080616471,0.000000000,0.000000000,9.800000000,0.967422758,0.000000000,0.000000000,-0.253166364
2.958332860,0.000000000,0.000000000,-0.080616471,0.000000000,0.000000000,9.800000000,0.967380224,0.000000000,0.000000000,-0.253328840
2.962499526,0.000000000,0.000000000,-0.064530628,0.000000000,0.000000000,9.800000000,0.967346158,0.000000000,0.000000000,-0.253458892
2.966666192,0.000000000,0.000000000,-0.064530628,0.000000000,0.000000000,9.800000000,0.967312075,0.000000000,0.000000000,-0.253588938
2.970832858,0.000000000,0.000000000,-0.064530628,-0.000000000,0.000000000,9.800000000,0.967277974,0.000000000,0.000000000,-0.253718980
2.979166190,0.000000000,0.000000000,-0.048419907,0.000000000,-0.000000000,9.800000000,0.967226767,0.000000000,0.000000000,-0.253914123
2.983332856,0.000000000,0.000000000,-0.048419907,0.000000000,-0.000000000,9.800000000,0.967201148,0.000000000,0.000000000,-0.254011690
2.987499522,0.000000000,0.000000000,-0.032290519,0.000000000,0.000000000,9.800000000,0.967184058,0.000000000,0.000000000,-0.254076755
2.991666188,0.000000000,0.000000000,-0.032290519,0.000000000,0.000000000,9.800000000,0.967166964,0.000000000,0.000000000,-0.254141819
2.995832854,0.000000000,0.000000000,-0.016148682,-0.000000000,0.000000000,9.800000000,0.967158413,0.000000000,0.000000000,-0.254174357
3.004166186,0.000000000,0.000000000,-0.016148682,-0.000000000,-0.000000000,9.800000000,0.967141309,0.000000000,0.000000000,-0.254239433
3.008332852,0.000000000,0.000000000,-0.000000620,-0.000000000,-0.000000000,9.800000000,0.967141308,0.000000000,0.000000000,-0.254239434
3.012499518,0.000000000,0.000000000,-0.000000620,-0.000000000,-0.000000000,9.800000000,0.967141308,0.000000000,0.000000000,-0.254239436
3.016666184,0.000000000,0.000000000,-0.000000620,0.000000000,-0.000000000,9.800000000,0.967141308,0.000000000,0.000000000,-0.254239437
3.020832850,0.000000000,0.000000000,-0.000000620,0.000000000,-0.000000000,9.800000000,0.967141307,0.000000000,0.000000000,-0.254239438
3.029166182,0.000000000,0.000000000,0.016147442,-0.000000000,0.000000000,9.800000000,0.967158410,0.000000000,0.000000000,-0.254174367
3.033332848,0.000000000,0.000000000,0.032289279,0.000000000,0.000000000,9.800000000,0.967175506,0.000000000,0.000000000,-0.254109307
3.037499514,0.000000000,0.000000000,0.032289279,0.000000000,0.000000000,9.800000000,0.967192598,0.000000000,0.000000000,-0.254044245
3.041666180,0.000000000,0.000000000,0.032289279,0.000000000,0.000000000,9.800000000,0.967209685,0.000000000,0.000000000,-0.253979182
3.045832846,0.000000000,0.000000000,0.048418668,0.000000000,0.000000000,9.800000000,0.967235300,0.000000000,0.000000000,-0.253881616
3.054166178,0.000000000,0.000000000,0.048418668,-0.000000000,-0.000000000,9.800000000,0.967286499,0.000000000,0.000000000,-0.253686477
3.058332844,0.000000000,0.000000000,0.064529391,-0.000000000,0.000000000,9.800000000,0.967320595,0.000000000,0.000000000,-0.253556436
3.062499510,0.000000000,0.000000000,0.064529391,-0.000000000,0.000000000,9.800000000,0.967354674,0.000000000,0.000000000,-0.253426391
3.066666176,0.000000000,0.000000000,0.064529391,-0.000000000,0.000000000,9.800000000,0.967388735,0.000000000,0.000000000,-0.253296341
3.070832842,0.000000000,0.000000000,0.080615237,-0.000000000,-0.000000000,9.800000000,0.967431262,0.000000000,0.000000000,-0.253133866
3.079166174,0.000000000,0.000000000,0.080615237,-0.000000000,0.000000000,9.800000000,0.967516234,0.000000000,0.000000000,-0.252808895
3.083332840,0.000000000,0.000000000,0.080615237,0.000000000,0.000000000,9.800000000,0.967558679,0.000000000,0.000000000,-0.252646398
3.087499506,0.000000000,0.000000000,0.080615237,-0.000000000,0.000000000,9.800000000,0.967601097,0.000000000,0.000000000,-0.252483895
3.091666172,0.000000000,0.000000000,0.096670003,-0.000000000,-0.000000000,9.800000000,0.967651927,0.000000000,0.000000000,-0.252289019
3.095832838,0.000000000,0.000000000,0.096670003,0.000000000,-0.000000000,9.800000000,0.967702717,0.000000000,0.000000000,-0.252094133
3.104166170,0.000000000,0.000000000,0.112687502,0.000000000,0.000000000,9.800000000,0.967820976,0.000000000,0.000000000,-0.251639738
3.108332836,0.000000000,0.000000000,0.128661557,0.000000000,-0.000000000,9.800000000,0.967888392,0.000000000,0.000000000,-0.251380310
3.112499502,0.000000000,0.000000000,0.128661557,0.000000000,-0.000000000,9.800000000,0.967955739,0.000000000,0.000000000,-0.251120863
3.116666168,0.000000000,0.000000000,0.128661557,0.000000000,0.000000000,9.800000000,0.968023016,0.000000000,0.000000000,-0.250861399
3.120832834,0.000000000,0.000000000,0.144586011,0.000000000,-0.000000000,9.800000000,0.968098536,0.000000000,0.000000000,-0.250569799
3.129166166,0.000000000,0.000000000,0.144586011,0.000000000,0.000000000,9.800000000,0.968249314,0.000000000,0.000000000,-0.249986530
3.133332832,0.000000000,0.000000000,0.144586011,0.000000000,0.000000000,9.800000000,0.968324572,0.000000000,0.000000000,-0.249694862
3.137499498,0.000000000,0.000000000,0.160454725,0.000000000,0.000000000,9.800000000,0.968407986,0.000000000,0.000000000,-0.249371156
3.141666164,0.000000000,0.000000000,0.160454725,0.000000000,0.000000000,9.800000000,0.968491291,0.000000000,0.000000000,-0.249047422
3.145832830,0.000000000,0.000000000,0.176261580,0.000000000,0.000000000,9.800000000,0.968582679,0.000000000,0.000000000,-0.248691764
3.154166162,0.000000000,0.000000000,0.176261580,-0.000000000,-0.000000000,9.800000000,0.968765063,0.000000000,0.000000000,-0.247980347
3.158332828,0.000000000,0.000000000,0.176261580,-0.000000000,-0.000000000,9.800000000,0.968856059,0.000000000,0.000000000,-0.247624589
3.162499494,0.000000000,0.000000000,0.176261580,-0.000000000,-0.000000000,9.800000000,0.968946924,0.000000000,0.000000000,-0.247268797
3.166666160,0.000000000,0.000000000,0.176261580,0.000000000,-0.000000000,9.800000000,0.969037659,0.000000000,0.000000000,-0.246912972
3.170832826,0.000000000,0.000000000,0.192000483,-0.000000000,0.000000000,9.800000000,0.969136347,0.000000000,0.000000000,-0.246525336
3.179166158,0.000000000,0.000000000,0.207665366,0.000000000,0.000000000,9.800000000,0.969341277,0.000000000,0.000000000,-0.245718312
3.183332824,0.000000000,0.000000000,0.207665366,0.000000000,0.000000000,9.800000000,0.969447493,0.000000000,0.000000000,-0.245298917
3.187499490,0.000000000,0.000000000,0.207665366,0.000000000,0.000000000,9.800000000,0.969553527,0.000000000,0.000000000,-0.244879476
3.191666156,0.000000000,0.000000000,0.223250190,0.000000000,0.000000000,9.800000000,0.969667317,0.000000000,0.000000000,-0.244428506
3.195832822,0.000000000,0.000000000,0.223250190,0.000000000,0.000000000,9.800000000,0.969780897,0.000000000,0.000000000,-0.243977482
3.204166154,0.000000000,0.000000000,0.238748947,0.000000000,0.000000000,9.800000000,0.970023123,0.000000000,0.000000000,-0.243012636
3.208332820,0.000000000,0.000000000,0.254155662,0.000000000,0.000000000,9.800000000,0.970151660,0.000000000,0.000000000,-0.242498984
3.212499486,0.000000000,0.000000000,0.254155662,0.000000000,0.000000000,9.800000000,0.970279925,0.000000000,0.000000000,-0.241985263
3.216666152,0.000000000,0.000000000,0.254155662,0.000000000,0.000000000,9.800000000,0.970407918,0.000000000,0.000000000,-0.241471475
3.220832818,0.000000000,0.000000000,0.254155662,0.000000000,0.000000000,9.800000000,0.970535639,0.000000000,0.000000000,-0.240957619
3.229166150,0.000000000,0.000000000,0.269464394,0.000000000,0.000000000,9.800000000,0.970805566,0.000000000,0.000000000,-0.239867781
3.233332816,0.000000000,0.000000000,0.269464394,0.000000000,-0.000000000,9.800000000,0.970940071,0.000000000,0.000000000,-0.239322748
3.237499482,0.000000000,0.000000000,0.269464394,0.000000000,0.000000000,9.800000000,0.971074270,0.000000000,0.000000000,-0.238777640
3.241666148,0.000000000,0.000000000,0.269464394,0.000000000,0.000000000,9.800000000,0.971208163,0.000000000,0.000000000,-0.238232457
3.245832814,0.000000000,0.000000000,0.299764348,0.000000000,0.000000000,9.800000000,0.971356752,0.000000000,0.000000000,-0.237625883
3.254166146,0.000000000,0.000000000,0.299764348,-0.000000000,0.000000000,9.800000000,0.971652793,0.000000000,0.000000000,-0.236412456
3.258332812,0.000000000,0.000000000,0.299764348,-0.000000000,0.000000000,9.800000000,0.971800246,0.000000000,0.000000000,-0.235805604
3.262499478,0.000000000,0.000000000,0.314743887,-0.000000000,-0.000000000,9.800000000,0.971954658,0.000000000,0.000000000,-0.235168328
3.266666144,0.000000000,0.000000000,0.314743887,0.000000000,0.000000000,9.800000000,0.972108653,0.000000000,0.000000000,-0.234530951
3.270832810,0.000000000,0.000000000,0.314743887,0.000000000,0.000000000,9.800000000,0.972262230,0.000000000,0.000000000,-0.233893473
3.279166142,0.000000000,0.000000000,0.329602086,-0.000000000,0.000000000,9.800000000,0.972582528,0.000000000,0.000000000,-0.232558004
3.283332808,0.000000000,0.000000000,0.329602086,-0.000000000,0.000000000,9.800000000,0.972741990,0.000000000,0.000000000,-0.231890105
3.287499474,0.000000000,0.000000000,0.329602086,-0.000000000,0.000000000,9.800000000,0.972900993,0.000000000,0.000000000,-0.231222097
3.291666140,0.000000000,0.000000000,0.344333218,-0.000000000,0.000000000,9.800000000,0.973066612,0.000000000,0.000000000,-0.230524117
3.295832806,0.000000000,0.000000000,0.344333218,0.000000000,0.000000000,9.800000000,0.973231731,0.000000000,0.000000000,-0.229826018
3.304166138,0.000000000,0.000000000,0.344333218,0.000000000,0.000000000,9.800000000,0.973560465,0.000000000,0.000000000,-0.228429465
3.308332804,0.000000000,0.000000000,0.373391612,-0.000000000,0.000000000,9.800000000,0.973737866,0.000000000,0.000000000,-0.227672064
3.312499470,0.000000000,0.000000000,0.373391612,-0.000000000,0.000000000,9.800000000,0.973914677,0.000000000,0.000000000,-0.226914526
3.316666136,0.000000000,0.000000000,0.373391612,-0.000000000,0.000000000,9.800000000,0.974090899,0.000000000,0.000000000,-0.226156850
3.320832802,0.000000000,0.000000000,0.387707672,0.000000000,0.000000000,9.800000000,0.974273253,0.000000000,0.000000000,-0.225369979
3.329166134,0.000000000,0.000000000,0.387707672,0.000000000,0.000000000,9.800000000,0.974636056,0.000000000,0.000000000,-0.223795798
3.333332800,0.000000000,0.000000000,0.401874263,-0.000000000,-0.000000000,9.800000000,0.974823084,0.000000000,0.000000000,-0.222979717
3.337499466,0.000000000,0.000000000,0.401874263,-0.000000000,-0.000000000,9.800000000,0.975009430,0.000000000,0.000000000,-0.222163480
3.341666132,0.000000000,0.000000000,0.401874263,-0.000000000,-0.000000000,9.800000000,0.975195092,0.000000000,0.000000000,-0.221347088
3.345832798,0.000000000,0.000000000,0.415885925,0.000000000,-0.000000000,9.800000000,0.975386507,0.000000000,0.000000000,-0.220502067
3.354166130,0.000000000,0.000000000,0.415885925,0.000000000,-0.000000000,9.800000000,0.975767141,0.000000000,0.000000000,-0.218811531
3.358332796,0.000000000,0.000000000,0.415885925,0.000000000,-0.000000000,9.800000000,0.975956360,0.000000000,0.000000000,-0.217966016
3.362499462,0.000000000,0.000000000,0.415885925,0.000000000,-0.000000000,9.800000000,0.976144845,0.000000000,0.000000000,-0.217120338
3.366666128,0.000000000,0.000000000,0.415885925,0.000000000,-0.000000000,9.800000000,0.976332598,0.000000000,0.000000000,-0.216274496
3.370832794,0.000000000,0.000000000,0.443422912,-0.000000000,0.000000000,9.800000000,0.976531975,0.000000000,0.000000000,-0.215372471
3.379166126,0.000000000,0.000000000,0.443422912,0.000000000,0.000000000,9.800000000,0.976928230,0.000000000,0.000000000,-0.213567868
3.383332792,0.000000000,0.000000000,0.456937621,0.000000000,-0.000000000,9.800000000,0.977131093,0.000000000,0.000000000,-0.212637782
3.387499458,0.000000000,0.000000000,0.456937621,0.000000000,-0.000000000,9.800000000,0.977333072,0.000000000,0.000000000,-0.211707502
3.391666124,0.000000000,0.000000000,0.456937621,0.000000000,0.000000000,9.800000000,0.977534165,0.000000000,0.000000000,-0.210777031
3.395832790,0.000000000,0.000000000,0.456937621,0.000000000,0.000000000,9.800000000,0.977734372,0.000000000,0.000000000,-0.209846369
3.404166122,0.000000000,0.000000000,0.470276173,0.000000000,0.000000000,9.800000000,0.978143685,0.000000000,0.000000000,-0.207930113
3.408332788,0.000000000,0.000000000,0.483433424,-0.000000000,-0.000000000,9.800000000,0.978352606,0.000000000,0.000000000,-0.206944867
3.412499454,0.000000000,0.000000000,0.483433424,-0.000000000,-0.000000000,9.800000000,0.978560535,0.000000000,0.000000000,-0.205959412
3.416666120,0.000000000,0.000000000,0.483433424,-0.000000000,-0.000000000,9.800000000,0.978767471,0.000000000,0.000000000,-0.204973748
3.420832786,0.000000000,0.000000000,0.496404303,0.000000000,0.000000000,9.800000000,0.978978927,0.000000000,0.000000000,-0.203961421
3.429166118,0.000000000,0.000000000,0.496404303,0.000000000,0.000000000,9.800000000,0.979398696,0.000000000,0.000000000,-0.201936114
3.433332784,0.000000000,0.000000000,0.509183808,-0.000000000,-0.000000000,9.800000000,0.979612359,0.000000000,0.000000000,-0.200897055
3.437499450,0.000000000,0.000000000,0.509183808,-0.000000000,-0.000000000,9.800000000,0.979824919,0.000000000,0.000000000,-0.199857770
3.441666116,0.000000000,0.000000000,0.509183808,-0.000000000,-0.000000000,9.800000000,0.980036377,0.000000000,0.000000000,-0.198818260
3.445832782,0.000000000,0.000000000,0.509183808,-0.000000000,0.000000000,9.800000000,0.980246731,0.000000000,0.000000000,-0.197778526
3.454166114,0.000000000,0.000000000,0.509183808,-0.000000000,-0.000000000,9.800000000,0.980664132,0.000000000,0.000000000,-0.195698392
3.458332780,0.000000000,0.000000000,0.534149067,0.000000000,0.000000000,9.800000000,0.980881300,0.000000000,0.000000000,-0.194606978
3.462499446,0.000000000,0.000000000,0.534149067,0.000000000,0.000000000,9.800000000,0.981097253,0.000000000,0.000000000,-0.193515323
3.466666112,0.000000000,0.000000000,0.534149067,0.000000000,0.000000000,9.800000000,0.981311991,0.000000000,0.000000000,-0.192423428
3.470832778,0.000000000,0.000000000,0.546325197,0.000000000,0.000000000,9.800000000,0.981530368,0.000000000,0.000000000,-0.191306397
3.479166110,0.000000000,0.000000000,0.546325197,0.000000000,0.000000000,9.800000000,0.981963305,0.000000000,0.000000000,-0.189071592
3.483332776,0.000000000,0.000000000,0.546325197,0.000000000,0.000000000,9.800000000,0.982177866,0.000000000,0.000000000,-0.187953821
3.487499442,0.000000000,0.000000000,0.546325197,0.000000000,0.000000000,9.800000000,0.982391155,0.000000000,0.000000000,-0.186835807
3.491666108,0.000000000,0.000000000,0.546325197,0.000000000,0.000000000,9.800000000,0.982603171,0.000000000,0.000000000,-0.185717551
3.495832774,0.000000000,0.000000000,0.570040987,0.000000000,0.000000000,9.800000000,0.982823033,0.000000000,0.000000000,-0.184550496
3.504166106,0.000000000,0.000000000,0.570040987,0.000000000,0.000000000,9.800000000,0.983258599,0.000000000,0.000000000,-0.182215605
3.508332772,0.000000000,0.000000000,0.581571505,-0.000000000,0.000000000,9.800000000,0.983478651,0.000000000,0.000000000,-0.181024148
3.512499438,0.000000000,0.000000000,0.581571505,-0.000000000,0.000000000,9.800000000,0.983697260,0.000000000,0.000000000,-0.179832426
3.516666104,0.000000000,0.000000000,0.581571505,-0.000000000,0.000000000,9.800000000,0.983914424,0.000000000,0.000000000,-0.178640440
3.520832770,0.000000000,0.000000000,0.581571505,-0.000000000,0.000000000,9.800000000,0.984130144,0.000000000,0.000000000,-0.177448191
3.529166102,0.000000000,0.000000000,0.581571505,-0.000000000,0.000000000,9.800000000,0.984557249,0.000000000,0.000000000,-0.175062915
3.533332768,0.000000000,0.000000000,0.592877816,-0.000000000,-0.000000000,9.800000000,0.984772729,0.000000000,0.000000000,-0.173846694
3.537499434,0.000000000,0.000000000,0.603955561,0.000000000,-0.000000000,9.800000000,0.984990690,0.000000000,0.000000000,-0.172607475
3.541666100,0.000000000,0.000000000,0.603955561,0.000000000,-0.000000000,9.800000000,0.985207092,0.000000000,0.000000000,-0.171367984
3.545832766,0.000000000,0.000000000,0.603955561,0.000000000,-0.000000000,9.800000000,0.985421934,0.000000000,0.000000000,-0.170128221
3.554166098,0.000000000,0.000000000,0.614800470,0.000000000,-0.000000000,9.800000000,0.985854513,0.000000000,0.000000000,-0.167603342
3.558332764,0.000000000,0.000000000,0.625408362,0.000000000,0.000000000,9.800000000,0.986072052,0.000000000,0.000000000,-0.166318696
3.562499430,0.000000000,0.000000000,0.625408362,0.000000000,-0.000000000,9.800000000,0.986287917,0.000000000,0.000000000,-0.165033769
3.566666096,0.000000000,0.000000000,0.625408362,0.000000000,0.000000000,9.800000000,0.986502108,0.000000000,0.000000000,-0.163748561
3.570832762,0.000000000,0.000000000,0.625408362,0.000000000,0.000000000,9.800000000,0.986714624,0.000000000,0.000000000,-0.162463076
3.579166094,0.000000000,0.000000000,0.635775147,-0.000000000,-0.000000000,9.800000000,0.987141536,0.000000000,0.000000000,-0.159848640
3.583332760,0.000000000,0.000000000,0.635775147,0.000000000,0.000000000,9.800000000,0.987352395,0.000000000,0.000000000,-0.158541000
3.587499426,0.000000000,0.000000000,0.645896829,-0.000000000,-0.000000000,9.800000000,0.987564836,0.000000000,0.000000000,-0.157212257
3.591666092,0.000000000,0.000000000,0.645896829,0.000000000,0.000000000,9.800000000,0.987775490,0.000000000,0.000000000,-0.155883230
3.595832758,0.000000000,0.000000000,0.655769505,0.000000000,0.000000000,9.800000000,0.987987534,0.000000000,0.000000000,-0.154533600
3.604166090,0.000000000,0.000000000,0.655769505,0.000000000,0.000000000,9.800000000,0.988406088,0.000000000,0.000000000,-0.151833477
3.608332756,0.000000000,0.000000000,0.665389370,-0.000000000,0.000000000,9.800000000,0.988615614,0.000000000,0.000000000,-0.150463175
3.612499422,0.000000000,0.000000000,0.665389370,0.000000000,0.000000000,9.800000000,0.988823241,0.000000000,0.000000000,-0.149092585
3.616666088,0.000000000,0.000000000,0.665389370,0.000000000,0.000000000,9.800000000,0.989028967,0.000000000,0.000000000,-0.147721708
3.620832754,0.000000000,0.000000000,0.665389370,-0.000000000,0.000000000,9.800000000,0.989232792,0.000000000,0.000000000,-0.146350547
3.629166086,0.000000000,0.000000000,0.674752714,0.000000000,0.000000000,9.800000000,0.989640342,0.000000000,0.000000000,-0.143568775
3.633332752,0.000000000,0.000000000,0.674752714,0.000000000,-0.000000000,9.800000000,0.989841184,0.000000000,0.000000000,-0.142177462
3.637499418,0.000000000,0.000000000,0.674752714,0.000000000,0.000000000,9.800000000,0.990040070,0.000000000,0.000000000,-0.140785868
3.641666084,0.000000000,0.000000000,0.683855929,-0.000000000,0.000000000,9.800000000,0.990239642,0.000000000,0.000000000,-0.139375216
3.645832750,0.000000000,0.000000000,0.683855929,0.000000000,0.000000000,9.800000000,0.990437205,0.000000000,0.000000000,-0.137964281
3.654166082,0.000000000,0.000000000,0.683855929,0.000000000,0.000000000,9.800000000,0.990826299,0.000000000,0.000000000,-0.135141573
3.658332748,0.000000000,0.000000000,0.683855929,0.000000000,0.000000000,9.800000000,0.991017830,0.000000000,0.000000000,-0.133729807
3.662499414,0.000000000,0.000000000,0.683855929,0.000000000,0.000000000,9.800000000,0.991207349,0.000000000,0.000000000,-0.132317769
3.666666080,0.000000000,0.000000000,0.683855929,0.000000000,0.000000000,9.800000000,0.991394856,0.000000000,0.000000000,-0.130905462
3.670832746,0.000000000,0.000000000,0.683855929,0.000000000,0.000000000,9.800000000,0.991580350,0.000000000,0.000000000,-0.129492890
3.679166078,0.000000000,0.000000000,0.709570208,0.000000000,0.000000000,9.800000000,0.991958867,0.000000000,0.000000000,-0.126560679
3.683332744,0.000000000,0.000000000,0.709570208,0.000000000,-0.000000000,9.800000000,0.992144874,0.000000000,0.000000000,-0.125094158
3.687499410,0.000000000,0.000000000,0.717598831,0.000000000,-0.000000000,9.800000000,0.992330781,0.000000000,0.000000000,-0.123610764
3.691666076,0.000000000,0.000000000,0.717598831,-0.000000000,-0.000000000,9.800000000,0.992514470,0.000000000,0.000000000,-0.122127095
3.695832742,0.000000000,0.000000000,0.725350807,0.000000000,0.000000000,9.800000000,0.992697888,0.000000000,0.000000000,-0.120627121
3.704166074,0.000000000,0.000000000,0.725350807,0.000000000,0.000000000,9.800000000,0.993057925,0.000000000,0.000000000,-0.117626349
3.708332740,0.000000000,0.000000000,0.732823145,-0.000000000,0.000000000,9.800000000,0.993236349,0.000000000,0.000000000,-0.116110096
3.712499406,0.000000000,0.000000000,0.732823145,-0.000000000,0.000000000,9.800000000,0.993412459,0.000000000,0.000000000,-0.114593573
3.716666072,0.000000000,0.000000000,0.732823145,0.000000000,0.000000000,9.800000000,0.993586253,0.000000000,0.000000000,-0.113076783
3.720832738,0.000000000,0.000000000,0.740012967,0.000000000,0.000000000,9.800000000,0.993759401,0.000000000,0.000000000,-0.111544844
3.729166070,0.000000000,0.000000000,0.740012967,0.000000000,0.000000000,9.800000000,0.994098613,0.000000000,0.000000000,-0.108480173
3.733332736,0.000000000,0.000000000,0.746917500,-0.000000000,-0.000000000,9.800000000,0.994266213,0.000000000,0.000000000,-0.106933148
3.737499402,0.000000000,0.000000000,0.746917500,-0.000000000,-0.000000000,9.800000000,0.994431405,0.000000000,0.000000000,-0.105385863
3.741666068,0.000000000,0.000000000,0.746917500,-0.000000000,-0.000000000,9.800000000,0.994594190,0.000000000,0.000000000,-0.103838324
3.745832734,0.000000000,0.000000000,0.746917500,-0.000000000,-0.000000000,9.800000000,0.994754566,0.000000000,0.000000000,-0.102290533
3.754166066,0.000000000,0.000000000,0.753534082,0.000000000,-0.000000000,9.800000000,0.995069460,0.000000000,0.000000000,-0.099180495
3.758332732,0.000000000,0.000000000,0.753534082,-0.000000000,-0.000000000,9.800000000,0.995223933,0.000000000,0.000000000,-0.097618251
3.762499398,0.000000000,0.000000000,0.759860162,0.000000000,0.000000000,9.800000000,0.995377220,0.000000000,0.000000000,-0.096042648
3.766666064,0.000000000,0.000000000,0.759860162,0.000000000,0.000000000,9.800000000,0.995528012,0.000000000,0.000000000,-0.094466805
3.770832730,0.000000000,0.000000000,0.765893301,0.000000000,0.000000000,9.800000000,0.995677477,0.000000000,0.000000000,-0.092878210
3.779166062,0.000000000,0.000000000,0.765893301,0.000000000,-0.000000000,9.800000000,0.995968801,0.000000000,0.000000000,-0.089700315
3.783332728,0.000000000,0.000000000,0.771631175,0.000000000,-0.000000000,9.800000000,0.996111714,0.000000000,0.000000000,-0.088099115
3.787499394,0.000000000,0.000000000,0.771631175,0.000000000,0.000000000,9.800000000,0.996252051,0.000000000,0.000000000,-0.086497688
3.791666060,0.000000000,0.000000000,0.771631175,0.000000000,-0.000000000,9.800000000,0.996389815,0.000000000,0.000000000,-0.084896038
3.795832726,0.000000000,0.000000000,0.777071570,0.000000000,-0.000000000,9.800000000,0.996525947,0.000000000,0.000000000,-0.083282873
3.804166058,0.000000000,0.000000000,0.777071570,0.000000000,-0.000000000,9.800000000,0.996790376,0.000000000,0.000000000,-0.080055892
3.808332724,0.000000000,0.000000000,0.777071570,0.000000000,-0.000000000,9.800000000,0.996918672,0.000000000,0.000000000,-0.078442085
3.812499390,0.000000000,0.000000000,0.782212389,0.000000000,0.000000000,9.800000000,0.997045178,0.000000000,0.000000000,-0.076817394
3.816666056,0.000000000,0.000000000,0.782212389,0.000000000,0.000000000,9.800000000,0.997169037,0.000000000,0.000000000,-0.075192499
3.820832722,0.000000000,0.000000000,0.782212389,0.000000000,0.000000000,9.800000000,0.997290247,0.000000000,0.000000000,-0.073567405
3.829166054,0.000000000,0.000000000,0.787051650,-0.000000000,0.000000000,9.800000000,0.997525431,0.000000000,0.000000000,-0.070306577
3.833332720,0.000000000,0.000000000,0.787051650,-0.000000000,0.000000000,9.800000000,0.997639371,0.000000000,0.000000000,-0.068670850
3.837499386,0.000000000,0.000000000,0.791587489,0.000000000,0.000000000,9.800000000,0.997751262,0.000000000,0.000000000,-0.067025510
3.841666052,0.000000000,0.000000000,0.791587489,0.000000000,0.000000000,9.800000000,0.997860440,0.000000000,0.000000000,-0.065379988
3.845832718,0.000000000,0.000000000,0.795818155,0.000000000,0.000000000,9.800000000,0.997967465,0.000000000,0.000000000,-0.063725492
3.854166050,0.000000000,0.000000000,0.795818155,0.000000000,0.000000000,9.800000000,0.998173286,0.000000000,0.000000000,-0.060415979
3.858332716,0.000000000,0.000000000,0.799742018,0.000000000,0.000000000,9.800000000,0.998272562,0.000000000,0.000000000,-0.058752810
3.862499382,0.000000000,0.000000000,0.799742018,0.000000000,0.000000000,9.800000000,0.998369066,0.000000000,0.000000000,-0.057089479
3.866666048,0.000000000,0.000000000,0.799742018,0.000000000,0.000000000,9.800000000,0.998462798,0.000000000,0.000000000,-0.055425989
3.870832714,0.000000000,0.000000000,0.803357566,-0.000000000,-0.000000000,9.800000000,0.998554164,0.000000000,0.000000000,-0.053754823
3.879166046,0.000000000,0.000000000,0.803357566,-0.000000000,-0.000000000,9.800000000,0.998728504,0.000000000,0.000000000,-0.050412045
3.883332712,0.000000000,0.000000000,0.806663404,0.000000000,-0.000000000,9.800000000,0.998811814,0.000000000,0.000000000,-0.048733563
3.887499378,0.000000000,0.000000000,0.806663404,0.000000000,-0.000000000,9.800000000,0.998892303,0.000000000,0.000000000,-0.047054944
3.891666044,0.000000000,0.000000000,0.806663404,0.000000000,0.000000000,9.800000000,0.998969970,0.000000000,0.000000000,-0.045376191
3.895832710,0.000000000,0.000000000,0.809658258,0.000000000,0.000000000,9.800000000,0.999045089,0.000000000,0.000000000,-0.043691077
3.904166042,0.000000000,0.000000000,0.809658258,0.000000000,0.000000000,9.800000000,0.999186799,0.000000000,0.000000000,-0.040320481
3.908332708,0.000000000,0.000000000,0.812340973,0.000000000,0.000000000,9.800000000,0.999253605,0.000000000,0.000000000,-0.038629423
3.912499374,0.000000000,0.000000000,0.812340973,0.000000000,0.000000000,9.800000000,0.999317550,0.000000000,0.000000000,-0.036938255
3.916666040,0.000000000,0.000000000,0.812340973,0.000000000,0.000000000,9.800000000,0.999378632,0.000000000,0.000000000,-0.035246981
3.920832706,0.000000000,0.000000000,0.814710516,0.000000000,-0.000000000,9.800000000,0.999437018,0.000000000,0.000000000,-0.033550673
3.929166038,0.000000000,0.000000000,0.814710516,0.000000000,0.000000000,9.800000000,0.999545151,0.000000000,0.000000000,-0.030157770
3.933332704,0.000000000,0.000000000,0.814710516,0.000000000,-0.000000000,9.800000000,0.999594898,0.000000000,0.000000000,-0.028461186
3.937499370,0.000000000,0.000000000,0.816765972,0.000000000,-0.000000000,9.800000000,0.999641881,0.000000000,0.000000000,-0.026760240
3.941666036,0.000000000,0.000000000,0.816765972,-0.000000000,-0.000000000,9.800000000,0.999685969,0.000000000,0.000000000,-0.025059216
3.945832702,0.000000000,0.000000000,0.818506550,-0.000000000,0.000000000,9.800000000,0.999727247,0.000000000,0.000000000,-0.023354494
3.954166034,0.000000000,0.000000000,0.818506550,0.000000000,0.000000000,9.800000000,0.999801082,0.000000000,0.000000000,-0.019944851
3.958332700,0.000000000,0.000000000,0.819931578,0.000000000,0.000000000,9.800000000,0.999833693,0.000000000,0.000000000,-0.018236972
3.962499366,0.000000000,0.000000000,0.819931578,-0.000000000,-0.000000000,9.800000000,0.999863386,0.000000000,0.000000000,-0.016529040
3.966666032,0.000000000,0.000000000,0.819931578,-0.000000000,0.000000000,9.800000000,0.999890162,0.000000000,0.000000000,-0.014821060
3.970832698,0.000000000,0.000000000,0.821040507,-0.000000000,-0.000000000,9.800000000,0.999914051,0.000000000,0.000000000,-0.013110726
3.979166030,0.000000000,0.000000000,0.821040507,-0.000000000,-0.000000000,9.800000000,0.999953051,0.000000000,0.000000000,-0.009689949
3.983332696,0.000000000,0.000000000,0.821040507,-0.000000000,-0.000000000,9.800000000,0.999968163,0.000000000,0.000000000,-0.007979515
3.987499362,0.000000000,0.000000000,0.821832909,0.000000000,0.000000000,9.800000000,0.999980360,0.000000000,0.000000000,-0.006267407
3.991666028,0.000000000,0.000000000,0.821832909,0.000000000,0.000000000,9.800000000,0.999989625,0.000000000,0.000000000,-0.004555280
3.995832694,0.000000000,0.000000000,0.822308479,-0.000000000,-0.000000000,9.800000000,0.999995961,0.000000000,0.000000000,-0.002842150
4.004166026,0.000000000,0.000000000,0.822308479,0.000000000,-0.000000000,9.800000000,0.999999829,0.000000000,0.000000000,0.000584131
4.008332692,0.000000000,0.000000000,0.822308479,0.000000000,0.000000000,9.800000000,0.999997361,0.000000000,0.000000000,0.002297271
4.012499358,0.000000000,0.000000000,0.822308479,0.000000000,-0.000000000,9.800000000,0.999991958,0.000000000,0.000000000,0.004010405
4.016666024,0.000000000,0.000000000,0.822467033,0.000000000,0.000000000,9.800000000,0.999983619,0.000000000,0.000000000,0.005723857
4.020832690,0.000000000,0.000000000,0.822308511,0.000000000,0.000000000,9.800000000,0.999972345,0.000000000,0.000000000,0.007436962
4.029166022,0.000000000,0.000000000,0.822308511,0.000000000,0.000000000,9.800000000,0.999940995,0.000000000,0.000000000,0.010863102
4.033332688,0.000000000,0.000000000,0.821832974,0.000000000,0.000000000,9.800000000,0.999920930,0.000000000,0.000000000,0.012575136
4.037499354,0.000000000,0.000000000,0.821832974,0.000000000,0.000000000,9.800000000,0.999897934,0.000000000,0.000000000,0.014287133
4.041666020,0.000000000,0.000000000,0.821832974,0.000000000,0.000000000,9.800000000,0.999872006,0.000000000,0.000000000,0.015999089
4.045832686,0.000000000,0.000000000,0.821040604,0.000000000,0.000000000,9.800000000,0.999843177,0.000000000,0.000000000,0.017709346
4.054166018,0.000000000,0.000000000,0.821040604,-0.000000000,-0.000000000,9.800000000,0.999776743,0.000000000,0.000000000,0.021129702
4.058332684,0.000000000,0.000000000,0.819931708,-0.000000000,-0.000000000,9.800000000,0.999739191,0.000000000,0.000000000,0.022837479
4.062499350,0.000000000,0.000000000,0.819931708,-0.000000000,-0.000000000,9.800000000,0.999698721,0.000000000,0.000000000,0.024545190
4.066666016,0.000000000,0.000000000,0.819931708,-0.000000000,0.000000000,9.800000000,0.999655335,0.000000000,0.000000000,0.026252830
4.070832682,0.000000000,0.000000000,0.818506712,-0.000000000,-0.000000000,9.800000000,0.999609115,0.000000000,0.000000000,0.027957425
4.079166014,0.000000000,0.000000000,0.818506712,-0.000000000,0.000000000,9.800000000,0.999507954,0.000000000,0.000000000,0.031366367
4.083332680,0.000000000,0.000000000,0.816766167,-0.000000000,0.000000000,9.800000000,0.999453135,0.000000000,0.000000000,0.033067079
4.087499346,0.000000000,0.000000000,0.816766167,0.000000000,0.000000000,9.800000000,0.999395421,0.000000000,0.000000000,0.034767696
4.091666012,0.000000000,0.000000000,0.816766167,-0.000000000,0.000000000,9.800000000,0.999334814,0.000000000,0.000000000,0.036468212
4.095832678,0.000000000,0.000000000,0.816766167,-0.000000000,0.000000000,9.800000000,0.999271313,0.000000000,0.000000000,0.038168623
4.104166010,0.000000000,0.000000000,0.814710743,-0.000000000,-0.000000000,9.800000000,0.999135809,0.000000000,0.000000000,0.041564828
4.108332676,0.000000000,0.000000000,0.814710743,-0.000000000,-0.000000000,9.800000000,0.999063821,0.000000000,0.000000000,0.043260615
4.112499342,0.000000000,0.000000000,0.814710743,-0.000000000,-0.000000000,9.800000000,0.998988955,0.000000000,0.000000000,0.044956276
4.116666008,0.000000000,0.000000000,0.812341232,0.000000000,0.000000000,9.800000000,0.998911442,0.000000000,0.000000000,0.046646877
4.120832674,0.000000000,0.000000000,0.812341232,0.000000000,0.000000000,9.800000000,0.998831067,0.000000000,0.000000000,0.048337345
4.129166006,0.000000000,0.000000000,0.809658549,0.000000000,-0.000000000,9.800000000,0.998662314,0.000000000,0.000000000,0.051706697
4.133332672,0.000000000,0.000000000,0.806663726,-0.000000000,0.000000000,9.800000000,0.998574008,0.000000000,0.000000000,0.053384924
4.137499338,0.000000000,0.000000000,0.806663726,0.000000000,0.000000000,9.800000000,0.998482882,0.000000000,0.000000000,0.055063001
4.141666004,0.000000000,0.000000000,0.806663726,0.000000000,0.000000000,9.800000000,0.998388936,0.000000000,0.000000000,0.056740922
4.145832670,0.000000000,0.000000000,0.806663726,0.000000000,0.000000000,9.800000000,0.998292170,0.000000000,0.000000000,0.058418682
4.154166002,0.000000000,0.000000000,0.806663726,0.000000000,0.000000000,9.800000000,0.998090181,0.000000000,0.000000000,0.061773704
4.158332668,0.000000000,0.000000000,0.806663726,0.000000000,0.000000000,9.800000000,0.997984958,0.000000000,0.000000000,0.063450956
4.162499334,0.000000000,0.000000000,0.806663726,-0.000000000,0.000000000,9.800000000,0.997876916,0.000000000,0.000000000,0.065128028
4.166666000,0.000000000,0.000000000,0.806663726,-0.000000000,0.000000000,9.800000000,0.997766056,0.000000000,0.000000000,0.066804917
4.170832666,0.000000000,0.000000000,0.795818572,0.000000000,0.000000000,9.800000000,0.997653925,0.000000000,0.000000000,0.068459075
4.179165998,0.000000000,0.000000000,0.795818572,0.000000000,0.000000000,9.800000000,0.997421437,0.000000000,0.000000000,0.071766824
4.183332664,0.000000000,0.000000000,0.791587937,0.000000000,0.000000000,9.800000000,0.997301727,0.000000000,0.000000000,0.073411614
4.187499330,0.000000000,0.000000000,0.791587937,0.000000000,0.000000000,9.800000000,0.997179305,0.000000000,0.000000000,0.075056205
4.191665996,0.000000000,0.000000000,0.791587937,0.000000000,0.000000000,9.800000000,0.997054171,0.000000000,0.000000000,0.076700592
4.195832662,0.000000000,0.000000000,0.791587937,-0.000000000,0.000000000,9.800000000,0.996926325,0.000000000,0.000000000,0.078344770
4.204165994,0.000000000,0.000000000,0.787052130,0.000000000,-0.000000000,9.800000000,0.996664042,0.000000000,0.000000000,0.081613646
4.208332660,0.000000000,0.000000000,0.782212900,-0.000000000,0.000000000,9.800000000,0.996529720,0.000000000,0.000000000,0.083237711
4.212499326,0.000000000,0.000000000,0.782212900,0.000000000,0.000000000,9.800000000,0.996392752,0.000000000,0.000000000,0.084861555
4.216665992,0.000000000,0.000000000,0.782212900,-0.000000000,-0.000000000,9.800000000,0.996253138,0.000000000,0.000000000,0.086485173
4.220832658,0.000000000,0.000000000,0.777072111,-0.000000000,-0.000000000,9.800000000,0.996111822,0.000000000,0.000000000,0.088097893
4.229165990,0.000000000,0.000000000,0.777072111,-0.000000000,-0.000000000,9.800000000,0.995821358,0.000000000,0.000000000,0.091322636
4.233332656,0.000000000,0.000000000,0.771631747,0.000000000,-0.000000000,9.800000000,0.995673264,0.000000000,0.000000000,0.092923366
4.237499322,0.000000000,0.000000000,0.771631747,-0.000000000,-0.000000000,9.800000000,0.995522597,0.000000000,0.000000000,0.094523856
4.241665988,0.000000000,0.000000000,0.771631747,-0.000000000,-0.000000000,9.800000000,0.995369357,0.000000000,0.000000000,0.096124101
4.245832654,0.000000000,0.000000000,0.771631747,-0.000000000,-0.000000000,9.800000000,0.995213545,0.000000000,0.000000000,0.097724098
4.254165986,0.000000000,0.000000000,0.765893904,-0.000000000,-0.000000000,9.800000000,0.994895413,0.000000000,0.000000000,0.100911437
4.258332652,0.000000000,0.000000000,0.759860795,0.000000000,0.000000000,9.800000000,0.994734419,0.000000000,0.000000000,0.102486272
4.262499318,0.000000000,0.000000000,0.759860795,-0.000000000,0.000000000,9.800000000,0.994570932,0.000000000,0.000000000,0.104060851
4.266665984,0.000000000,0.000000000,0.759860795,-0.000000000,-0.000000000,9.800000000,0.994404953,0.000000000,0.000000000,0.105635168
4.270832650,0.000000000,0.000000000,0.759860795,-0.000000000,0.000000000,9.800000000,0.994236482,0.000000000,0.000000000,0.107209221
4.279165982,0.000000000,0.000000000,0.753534744,0.000000000,0.000000000,9.800000000,0.993893521,0.000000000,0.000000000,0.110343418
4.283332648,0.000000000,0.000000000,0.746918192,0.000000000,0.000000000,9.800000000,0.993720614,0.000000000,0.000000000,0.111889861
4.287499314,0.000000000,0.000000000,0.746918192,0.000000000,0.000000000,9.800000000,0.993545302,0.000000000,0.000000000,0.113436033
4.291665980,0.000000000,0.000000000,0.746918192,0.000000000,0.000000000,9.800000000,0.993367583,0.000000000,0.000000000,0.114981930
4.295832646,0.000000000,0.000000000,0.740013689,-0.000000000,-0.000000000,9.800000000,0.993189136,0.000000000,0.000000000,0.116513263
4.304165978,0.000000000,0.000000000,0.740013689,-0.000000000,-0.000000000,9.800000000,0.992825159,0.000000000,0.000000000,0.119575093
4.308332644,0.000000000,0.000000000,0.732823896,0.000000000,-0.000000000,9.800000000,0.992641445,0.000000000,0.000000000,0.121090716
4.312499310,0.000000000,0.000000000,0.732823896,0.000000000,0.000000000,9.800000000,0.992455417,0.000000000,0.000000000,0.122606056
4.316665976,0.000000000,0.000000000,0.732823896,0.000000000,0.000000000,9.800000000,0.992267076,0.000000000,0.000000000,0.124121110
4.320832642,0.000000000,0.000000000,0.732823896,0.000000000,-0.000000000,9.800000000,0.992076422,0.000000000,0.000000000,0.125635875
4.329165974,0.000000000,0.000000000,0.725351586,0.000000000,0.000000000,9.800000000,0.991692182,0.000000000,0.000000000,0.128633647
4.333332640,0.000000000,0.000000000,0.717599639,0.000000000,0.000000000,9.800000000,0.991498767,0.000000000,0.000000000,0.130116082
4.337499306,0.000000000,0.000000000,0.717599639,0.000000000,0.000000000,9.800000000,0.991303136,0.000000000,0.000000000,0.131598225
4.341665972,0.000000000,0.000000000,0.717599639,0.000000000,-0.000000000,9.800000000,0.991105289,0.000000000,0.000000000,0.133080075
4.345832638,0.000000000,0.000000000,0.709571044,0.000000000,-0.000000000,9.800000000,0.990907477,0.000000000,0.000000000,0.134545053
4.354165970,0.000000000,0.000000000,0.709571044,0.000000000,-0.000000000,9.800000000,0.990505359,0.000000000,0.000000000,0.137474124
4.358332636,0.000000000,0.000000000,0.701268896,0.000000000,0.000000000,9.800000000,0.990303455,0.000000000,0.000000000,0.138921082
4.362499302,0.000000000,0.000000000,0.701268896,-0.000000000,0.000000000,9.800000000,0.990099438,0.000000000,0.000000000,0.140367743
4.366665968,0.000000000,0.000000000,0.701268896,0.000000000,0.000000000,9.800000000,0.989893307,0.000000000,0.000000000,0.141814105
4.370832634,0.000000000,0.000000000,0.701268896,-0.000000000,-0.000000000,9.800000000,0.989685064,0.000000000,0.000000000,0.143260164
4.379165966,0.000000000,0.000000000,0.701268896,-0.000000000,-0.000000000,9.800000000,0.989262240,0.000000000,0.000000000,0.146151362
4.383332632,0.000000000,0.000000000,0.683856848,0.000000000,0.000000000,9.800000000,0.989053014,0.000000000,0.000000000,0.147560617
4.387499298,0.000000000,0.000000000,0.683856848,0.000000000,0.000000000,9.800000000,0.988841780,0.000000000,0.000000000,0.148969572
4.391665964,0.000000000,0.000000000,0.683856848,0.000000000,0.000000000,9.800000000,0.988628540,0.000000000,0.000000000,0.150378224
4.395832630,0.000000000,0.000000000,0.674753660,-0.000000000,-0.000000000,9.800000000,0.988416171,0.000000000,0.000000000,0.151767827
4.404165962,0.000000000,0.000000000,0.674753660,0.000000000,-0.000000000,9.800000000,0.987985574,0.000000000,0.000000000,0.154546129
4.408332628,0.000000000,0.000000000,0.674753660,-0.000000000,-0.000000000,9.800000000,0.987767347,0.000000000,0.000000000,0.155934823
4.412499294,0.000000000,0.000000000,0.665390342,0.000000000,-0.000000000,9.800000000,0.987550236,0.000000000,0.000000000,0.157303945
4.416665960,0.000000000,0.000000000,0.665390342,0.000000000,0.000000000,9.800000000,0.987331228,0.000000000,0.000000000,0.158672765
4.420832626,0.000000000,0.000000000,0.665390342,0.000000000,-0.000000000,9.800000000,0.987110322,0.000000000,0.000000000,0.160041280
4.429165958,0.000000000,0.000000000,0.655770503,-0.000000000,0.000000000,9.800000000,0.986669345,0.000000000,0.000000000,0.162737836
4.433332624,0.000000000,0.000000000,0.645897853,0.000000000,-0.000000000,9.800000000,0.986449469,0.000000000,0.000000000,0.164065371
4.437499290,0.000000000,0.000000000,0.645897853,-0.000000000,-0.000000000,9.800000000,0.986227806,0.000000000,0.000000000,0.165392608
4.441665956,0.000000000,0.000000000,0.645897853,0.000000000,-0.000000000,9.800000000,0.986004357,0.000000000,0.000000000,0.166719546
4.445832622,0.000000000,0.000000000,0.645897853,-0.000000000,-0.000000000,9.800000000,0.985779124,0.000000000,0.000000000,0.168046183
4.454165954,0.000000000,0.000000000,0.635776196,0.000000000,0.000000000,9.800000000,0.985326901,0.000000000,0.000000000,0.170677762
4.458332620,0.000000000,0.000000000,0.625409436,-0.000000000,0.000000000,9.800000000,0.985103682,0.000000000,0.000000000,0.171961435
4.462499286,0.000000000,0.000000000,0.625409436,-0.000000000,0.000000000,9.800000000,0.984878791,0.000000000,0.000000000,0.173244816
4.466665952,0.000000000,0.000000000,0.625409436,0.000000000,0.000000000,9.800000000,0.984652229,0.000000000,0.000000000,0.174527903
4.470832618,0.000000000,0.000000000,0.625409436,0.000000000,0.000000000,9.800000000,0.984423994,0.000000000,0.000000000,0.175810693
4.479165950,0.000000000,0.000000000,0.614801569,0.000000000,0.000000000,9.800000000,0.983970395,0.000000000,0.000000000,0.178331886
4.483332616,0.000000000,0.000000000,0.614801569,0.000000000,0.000000000,9.800000000,0.983741174,0.000000000,0.000000000,0.179592044
4.487499282,0.000000000,0.000000000,0.603956684,-0.000000000,-0.000000000,9.800000000,0.983514425,0.000000000,0.000000000,0.180829687
