t,wx,wy,wz,ax,ay,az,qw,qx,qy,qz
0.008333332,0.000000000,0.000000000,0.822467033,-0.000000000,0.000000000,9.800000000,0.999998532,0.000000000,0.000000000,0.001713472
0.012499998,0.000000000,0.000000000,0.822467033,-0.000000000,-0.000000000,9.800000000,0.999994128,0.000000000,0.000000000,0.003426939
0.016666664,0.000000000,0.000000000,0.822467033,-0.000000000,0.000000000,9.800000000,0.999986788,0.000000000,0.000000000,0.005140395
0.020833330,0.000000000,0.000000000,0.822308495,0.000000000,-0.000000000,9.800000000,0.999976514,0.000000000,0.000000000,0.006853507
0.029166662,0.000000000,0.000000000,0.822308495,-0.000000000,-0.000000000,9.800000000,0.999947163,0.000000000,0.000000000,0.010279664
0.033333328,0.000000000,0.000000000,0.821832941,0.000000000,0.000000000,9.800000000,0.999928097,0.000000000,0.000000000,0.011991710
0.037499994,0.000000000,0.000000000,0.821832941,0.000000000,0.000000000,9.800000000,0.999906100,0.000000000,0.000000000,0.013703720
0.041666660,0.000000000,0.000000000,0.821832941,0.000000000,0.000000000,9.800000000,0.999881171,0.000000000,0.000000000,0.015415690
0.045833326,0.000000000,0.000000000,0.821040555,0.000000000,0.000000000,9.800000000,0.999853340,0.000000000,0.000000000,0.017125964
0.054166658,0.000000000,0.000000000,0.821040555,0.000000000,0.000000000,9.800000000,0.999788901,0.000000000,0.000000000,0.020546357
0.058333324,0.000000000,0.000000000,0.819931643,0.000000000,0.000000000,9.800000000,0.999752346,0.000000000,0.000000000,0.022254156
0.062499990,0.000000000,0.000000000,0.819931643,0.000000000,0.000000000,9.800000000,0.999712873,0.000000000,0.000000000,0.023961891
0.066666656,0.000000000,0.000000000,0.819931643,0.000000000,0.000000000,9.800000000,0.999670483,0.000000000,0.000000000,0.025669555
0.070833322,0.000000000,0.000000000,0.818506631,0.000000000,0.000000000,9.800000000,0.999625257,0.000000000,0.000000000,0.027374177
0.079166654,0.000000000,0.000000000,0.818506631,0.000000000,0.000000000,9.800000000,0.999526086,0.000000000,0.000000000,0.030783177
0.083333320,0.000000000,0.000000000,0.816766070,-0.000000000,-0.000000000,9.800000000,0.999472258,0.000000000,0.000000000,0.032483921
0.087499986,0.000000000,0.000000000,0.816766070,-0.000000000,-0.000000000,9.800000000,0.999415537,0.000000000,0.000000000,0.034184571
0.091666652,0.000000000,0.000000000,0.816766070,0.000000000,-0.000000000,9.800000000,0.999355922,0.000000000,0.000000000,0.035885122
0.095833318,0.000000000,0.000000000,0.814710629,-0.000000000,0.000000000,9.800000000,0.999293574,0.000000000,0.000000000,0.037581289
0.104166650,0.000000000,0.000000000,0.814710629,-0.000000000,0.000000000,9.800000000,0.999160242,0.000000000,0.000000000,0.040973295
0.108333316,0.000000000,0.000000000,0.812341103,0.000000000,0.000000000,9.800000000,0.999089469,0.000000000,0.000000000,0.042664192
0.112499982,0.000000000,0.000000000,0.812341103,-0.000000000,0.000000000,9.800000000,0.999015834,0.000000000,0.000000000,0.044354966
0.116666648,0.000000000,0.000000000,0.812341103,0.000000000,0.000000000,9.800000000,0.998939338,0.000000000,0.000000000,0.046045613
0.120833314,0.000000000,0.000000000,0.809658403,0.000000000,0.000000000,9.800000000,0.998860248,0.000000000,0.000000000,0.047730546
0.129166646,0.000000000,0.000000000,0.809658403,-0.000000000,0.000000000,9.800000000,0.998693542,0.000000000,0.000000000,0.051099999
0.133333312,0.000000000,0.000000000,0.806663565,-0.000000000,0.000000000,9.800000000,0.998606255,0.000000000,0.000000000,0.052778279
0.137499978,0.000000000,0.000000000,0.806663565,0.000000000,0.000000000,9.800000000,0.998516149,0.000000000,0.000000000,0.054456410
0.141666644,0.000000000,0.000000000,0.806663565,0.000000000,0.000000000,9.800000000,0.998423222,0.000000000,0.000000000,0.056134388
0.145833310,0.000000000,0.000000000,0.803357743,0.000000000,0.000000000,9.800000000,0.998327874,0.000000000,0.000000000,0.057805331
0.154166642,0.000000000,0.000000000,0.803357743,-0.000000000,0.000000000,9.800000000,0.998128788,0.000000000,0.000000000,0.061146727
0.158333308,0.000000000,0.000000000,0.799742211,0.000000000,0.000000000,9.800000000,0.998025524,0.000000000,0.000000000,0.062809653
0.162499974,0.000000000,0.000000000,0.799742211,0.000000000,0.000000000,9.800000000,0.997919490,0.000000000,0.000000000,0.064472405
0.166666640,0.000000000,0.000000000,0.799742211,0.000000000,0.000000000,9.800000000,0.997810686,0.000000000,0.000000000,0.066134978
0.170833306,0.000000000,0.000000000,0.795818364,0.000000000,0.000000000,9.800000000,0.997699666,0.000000000,0.000000000,0.067789211
0.179166638,0.000000000,0.000000000,0.795818364,0.000000000,0.000000000,9.800000000,0.997469398,0.000000000,0.000000000,0.071097114
0.183333304,0.000000000,0.000000000,0.791587713,0.000000000,0.000000000,9.800000000,0.997350793,0.000000000,0.000000000,0.072741984
0.187499970,0.000000000,0.000000000,0.791587713,0.000000000,0.000000000,9.800000000,0.997229475,0.000000000,0.000000000,0.074386656
0.191666636,0.000000000,0.000000000,0.791587713,0.000000000,0.000000000,9.800000000,0.997105445,0.000000000,0.000000000,0.076031126
0.195833302,0.000000000,0.000000000,0.787051890,0.000000000,0.000000000,9.800000000,0.996979437,0.000000000,0.000000000,0.077665968
0.204166634,0.000000000,0.000000000,0.787051890,-0.000000000,0.000000000,9.800000000,0.996719380,0.000000000,0.000000000,0.080935021
0.208333300,0.000000000,0.000000000,0.782212644,0.000000000,0.000000000,9.800000000,0.996586164,0.000000000,0.000000000,0.082559176
0.212499966,0.000000000,0.000000000,0.782212644,0.000000000,0.000000000,9.800000000,0.996450302,0.000000000,0.000000000,0.084183112
0.216666632,0.000000000,0.000000000,0.782212644,0.000000000,0.000000000,9.800000000,0.996311793,0.000000000,0.000000000,0.085806824
0.220833298,0.000000000,0.000000000,0.777071841,0.000000000,0.000000000,9.800000000,0.996171575,0.000000000,0.000000000,0.087419640
0.229166630,0.000000000,0.000000000,0.777071841,0.000000000,0.000000000,9.800000000,0.995883307,0.000000000,0.000000000,0.090644579
0.233333296,0.000000000,0.000000000,0.771631461,0.000000000,0.000000000,9.800000000,0.995736303,0.000000000,0.000000000,0.092245409
0.237499962,0.000000000,0.000000000,0.771631461,0.000000000,0.000000000,9.800000000,0.995586726,0.000000000,0.000000000,0.093846000
0.241666628,0.000000000,0.000000000,0.771631461,0.000000000,0.000000000,9.800000000,0.995434576,0.000000000,0.000000000,0.095446349
0.245833294,0.000000000,0.000000000,0.765893603,0.000000000,-0.000000000,9.800000000,0.995281013,0.000000000,0.000000000,0.097034553
0.254166626,0.000000000,0.000000000,0.765893603,0.000000000,-0.000000000,9.800000000,0.994966287,0.000000000,0.000000000,0.100210217
0.258333292,0.000000000,0.000000000,0.759860478,-0.000000000,-0.000000000,9.800000000,0.994806403,0.000000000,0.000000000,0.101785165
0.262499958,0.000000000,0.000000000,0.759860478,-0.000000000,0.000000000,9.800000000,0.994644027,0.000000000,0.000000000,0.103359857
0.266666624,0.000000000,0.000000000,0.759860478,-0.000000000,0.000000000,9.800000000,0.994479157,0.000000000,0.000000000,0.104934291
0.270833290,0.000000000,0.000000000,0.753534413,0.000000000,0.000000000,9.800000000,0.994313200,0.000000000,0.000000000,0.106495357
0.279166622,0.000000000,0.000000000,0.753534413,0.000000000,0.000000000,9.800000000,0.993973933,0.000000000,0.000000000,0.109616698
0.283333288,0.000000000,0.000000000,0.746917846,0.000000000,0.000000000,9.800000000,0.993802157,0.000000000,0.000000000,0.111163267
0.287499954,0.000000000,0.000000000,0.746917846,-0.000000000,0.000000000,9.800000000,0.993627976,0.000000000,0.000000000,0.112709566
0.291666620,0.000000000,0.000000000,0.746917846,-0.000000000,0.000000000,9.800000000,0.993451388,0.000000000,0.000000000,0.114255592
0.295833286,0.000000000,0.000000000,0.740013328,-0.000000000,0.000000000,9.800000000,0.993274060,0.000000000,0.000000000,0.115787054
0.304166618,0.000000000,0.000000000,0.740013328,0.000000000,0.000000000,9.800000000,0.992912322,0.000000000,0.000000000,0.118849148
0.308333284,0.000000000,0.000000000,0.732823521,-0.000000000,0.000000000,9.800000000,0.992729716,0.000000000,0.000000000,0.120364904
0.312499950,0.000000000,0.000000000,0.732823521,0.000000000,0.000000000,9.800000000,0.992544797,0.000000000,0.000000000,0.121880378
0.316666616,0.000000000,0.000000000,0.732823521,0.000000000,0.000000000,9.800000000,0.992357563,0.000000000,0.000000000,0.123395569
0.320833282,0.000000000,0.000000000,0.725351196,0.000000000,0.000000000,9.800000000,0.992169961,0.000000000,0.000000000,0.124895027
0.329166614,0.000000000,0.000000000,0.725351196,0.000000000,0.000000000,9.800000000,0.991787961,0.000000000,0.000000000,0.127893084
0.333333280,0.000000000,0.000000000,0.717599235,0.000000000,0.000000000,9.800000000,0.991595653,0.000000000,0.000000000,0.129375661
0.337499946,0.000000000,0.000000000,0.717599235,0.000000000,0.000000000,9.800000000,0.991401128,0.000000000,0.000000000,0.130857950
0.341666612,0.000000000,0.000000000,0.717599235,0.000000000,0.000000000,9.800000000,0.991204388,0.000000000,0.000000000,0.132339946
0.345833278,0.000000000,0.000000000,0.709570626,0.000000000,-0.000000000,9.800000000,0.991007671,0.000000000,0.000000000,0.133805070
0.354166610,0.000000000,0.000000000,0.709570626,0.000000000,0.000000000,9.800000000,0.990607739,0.000000000,0.000000000,0.136734439
0.358333276,0.000000000,0.000000000,0.701268464,-0.000000000,-0.000000000,9.800000000,0.990406917,0.000000000,0.000000000,0.138181546
0.362499942,0.000000000,0.000000000,0.701268464,-0.000000000,0.000000000,9.800000000,0.990203980,0.000000000,0.000000000,0.139628359
0.366666608,0.000000000,0.000000000,0.701268464,-0.000000000,-0.000000000,9.800000000,0.989998929,0.000000000,0.000000000,0.141074873
0.370833274,0.000000000,0.000000000,0.692695950,0.000000000,0.000000000,9.800000000,0.989794311,0.000000000,0.000000000,0.142503409
0.379166606,0.000000000,0.000000000,0.692695950,-0.000000000,0.000000000,9.800000000,0.989378891,0.000000000,0.000000000,0.145359589
0.383333272,0.000000000,0.000000000,0.683856388,-0.000000000,0.000000000,9.800000000,0.989170793,0.000000000,0.000000000,0.146769009
0.387499938,0.000000000,0.000000000,0.683856388,-0.000000000,0.000000000,9.800000000,0.988960687,0.000000000,0.000000000,0.148178132
0.391666604,0.000000000,0.000000000,0.683856388,-0.000000000,0.000000000,9.800000000,0.988748574,0.000000000,0.000000000,0.149586954
0.395833270,0.000000000,0.000000000,0.674753187,0.000000000,-0.000000000,9.800000000,0.988537318,0.000000000,0.000000000,0.150976725
0.404166602,0.000000000,0.000000000,0.674753187,0.000000000,-0.000000000,9.800000000,0.988108945,0.000000000,0.000000000,0.153755369
0.408333268,0.000000000,0.000000000,0.665389856,-0.000000000,-0.000000000,9.800000000,0.987894855,0.000000000,0.000000000,0.155124965
0.412499934,0.000000000,0.000000000,0.665389856,-0.000000000,0.000000000,9.800000000,0.987678868,0.000000000,0.000000000,0.156494264
0.416666600,0.000000000,0.000000000,0.665389856,-0.000000000,-0.000000000,9.800000000,0.987460982,0.000000000,0.000000000,0.157863262
0.420833266,0.000000000,0.000000000,0.655770004,-0.000000000,0.000000000,9.800000000,0.987244390,0.000000000,0.000000000,0.159212171
0.429166598,0.000000000,0.000000000,0.655770004,-0.000000000,-0.000000000,9.800000000,0.986805677,0.000000000,0.000000000,0.161909095
0.433333264,0.000000000,0.000000000,0.645897341,0.000000000,0.000000000,9.800000000,0.986586916,0.000000000,0.000000000,0.163236812
0.437499930,0.000000000,0.000000000,0.645897341,0.000000000,0.000000000,9.800000000,0.986366368,0.000000000,0.000000000,0.164564235
0.441666596,0.000000000,0.000000000,0.645897341,0.000000000,0.000000000,9.800000000,0.986144035,0.000000000,0.000000000,0.165891359
0.445833262,0.000000000,0.000000000,0.635775672,0.000000000,-0.000000000,9.800000000,0.985923441,0.000000000,0.000000000,0.167197393
0.454166594,0.000000000,0.000000000,0.635775672,-0.000000000,-0.000000000,9.800000000,0.985477066,0.000000000,0.000000000,0.169808578
0.458333260,0.000000000,0.000000000,0.625408899,-0.000000000,-0.000000000,9.800000000,0.985254980,0.000000000,0.000000000,0.171092446
0.462499926,0.000000000,0.000000000,0.625408899,-0.000000000,-0.000000000,9.800000000,0.985031221,0.000000000,0.000000000,0.172376024
0.466666592,0.000000000,0.000000000,0.625408899,-0.000000000,0.000000000,9.800000000,0.984805790,0.000000000,0.000000000,0.173659309
0.470833258,0.000000000,0.000000000,0.614801020,-0.000000000,-0.000000000,9.800000000,0.984582554,0.000000000,0.000000000,0.174920540
0.479166590,0.000000000,0.000000000,0.614801020,-0.000000000,-0.000000000,9.800000000,0.984131235,0.000000000,0.000000000,0.177442139
0.483333256,0.000000000,0.000000000,0.603956123,0.000000000,0.000000000,9.800000000,0.983907191,0.000000000,0.000000000,0.178680273
0.487499922,0.000000000,0.000000000,0.603956123,0.000000000,0.000000000,9.800000000,0.983681589,0.000000000,0.000000000,0.179918125
0.491666588,0.000000000,0.000000000,0.603956123,-0.000000000,0.000000000,9.800000000,0.983454430,0.000000000,0.000000000,0.181155691
0.495833254,0.000000000,0.000000000,0.592878389,0.000000000,0.000000000,9.800000000,0.983229923,0.000000000,0.000000000,0.182370279
0.504166586,0.000000000,0.000000000,0.592878389,0.000000000,0.000000000,9.800000000,0.982776409,0.000000000,0.000000000,0.184798619
0.508333252,0.000000000,0.000000000,0.581572090,0.000000000,0.000000000,9.800000000,0.982551784,0.000000000,0.000000000,0.185989223
0.512499918,0.000000000,0.000000000,0.581572090,0.000000000,0.000000000,9.800000000,0.982325717,0.000000000,0.000000000,0.187179554
0.516666584,0.000000000,0.000000000,0.581572090,-0.000000000,-0.000000000,9.800000000,0.982098208,0.000000000,0.000000000,0.188369611
0.520833250,0.000000000,0.000000000,0.570041583,-0.000000000,0.000000000,9.800000000,0.981873810,0.000000000,0.000000000,0.189535804
0.529166582,0.000000000,0.000000000,0.570041583,-0.000000000,0.000000000,9.800000000,0.981420861,0.000000000,0.000000000,0.191867387
0.533333248,0.000000000,0.000000000,0.558291315,0.000000000,-0.000000000,9.800000000,0.981197035,0.000000000,0.000000000,0.193008755
0.537499914,0.000000000,0.000000000,0.558291315,0.000000000,-0.000000000,9.800000000,0.980971881,0.000000000,0.000000000,0.194149861
0.541666580,0.000000000,0.000000000,0.558291315,0.000000000,0.000000000,9.800000000,0.980745401,0.000000000,0.000000000,0.195290704
0.545833246,0.000000000,0.000000000,0.546325815,0.000000000,0.000000000,9.800000000,0.980522490,0.000000000,0.000000000,0.196406841
0.554166578,0.000000000,0.000000000,0.546325815,0.000000000,0.000000000,9.800000000,0.980072858,0.000000000,0.000000000,0.198638349
0.558333244,0.000000000,0.000000000,0.534149696,0.000000000,0.000000000,9.800000000,0.979851204,0.000000000,0.000000000,0.199728863
0.562499910,0.000000000,0.000000000,0.534149696,-0.000000000,0.000000000,9.800000000,0.979628336,0.000000000,0.000000000,0.200819129
0.566666576,0.000000000,0.000000000,0.534149696,0.000000000,0.000000000,9.800000000,0.979404256,0.000000000,0.000000000,0.201909146
0.570833242,0.000000000,0.000000000,0.521767652,0.000000000,-0.000000000,9.800000000,0.979184199,0.000000000,0.000000000,0.202973654
0.579166574,0.000000000,0.000000000,0.521767652,0.000000000,-0.000000000,9.800000000,0.978740614,0.000000000,0.000000000,0.205101950
0.583333240,0.000000000,0.000000000,0.509184457,0.000000000,0.000000000,9.800000000,0.978522491,0.000000000,0.000000000,0.206140083
0.587499906,0.000000000,0.000000000,0.509184457,0.000000000,0.000000000,9.800000000,0.978303267,0.000000000,0.000000000,0.207177985
0.591666572,0.000000000,0.000000000,0.509184457,0.000000000,0.000000000,9.800000000,0.978082942,0.000000000,0.000000000,0.208215653
0.595833238,0.000000000,0.000000000,0.496404962,0.000000000,0.000000000,9.800000000,0.977867087,0.000000000,0.000000000,0.209227052
0.604166570,0.000000000,0.000000000,0.496404962,0.000000000,-0.000000000,9.800000000,0.977432241,0.000000000,0.000000000,0.211249178
0.608333236,0.000000000,0.000000000,0.483434093,-0.000000000,0.000000000,9.800000000,0.977218984,0.000000000,0.000000000,0.212233496
0.612499902,0.000000000,0.000000000,0.483434093,0.000000000,0.000000000,9.800000000,0.977004737,0.000000000,0.000000000,0.213217598
0.616666568,0.000000000,0.000000000,0.483434093,0.000000000,0.000000000,9.800000000,0.976789498,0.000000000,0.000000000,0.214201484
0.620833234,0.000000000,0.000000000,0.470276851,0.000000000,-0.000000000,9.800000000,0.976579167,0.000000000,0.000000000,0.215158384
0.629166566,0.000000000,0.000000000,0.470276851,0.000000000,-0.000000000,9.800000000,0.976155693,0.000000000,0.000000000,0.217071564
0.633333232,0.000000000,0.000000000,0.456938309,-0.000000000,-0.000000000,9.800000000,0.975948608,0.000000000,0.000000000,0.218000721
0.637499898,0.000000000,0.000000000,0.456938309,-0.000000000,-0.000000000,9.800000000,0.975740639,0.000000000,0.000000000,0.218929681
0.641666564,0.000000000,0.000000000,0.456938309,-0.000000000,-0.000000000,9.800000000,0.975531786,0.000000000,0.000000000,0.219858443
0.645833230,0.000000000,0.000000000,0.443423608,0.000000000,-0.000000000,9.800000000,0.975328265,0.000000000,0.000000000,0.220759544
0.654166562,0.000000000,0.000000000,0.443423608,0.000000000,-0.000000000,9.800000000,0.974918725,0.000000000,0.000000000,0.222561181
0.658333228,0.000000000,0.000000000,0.429737959,0.000000000,0.000000000,9.800000000,0.974719078,0.000000000,0.000000000,0.223433924
0.662499894,0.000000000,0.000000000,0.429737959,0.000000000,0.000000000,9.800000000,0.974518650,0.000000000,0.000000000,0.224306488
0.666666560,0.000000000,0.000000000,0.429737959,0.000000000,0.000000000,9.800000000,0.974317441,0.000000000,0.000000000,0.225178872
0.670833226,0.000000000,0.000000000,0.415886638,0.000000000,-0.000000000,9.800000000,0.974121973,0.000000000,0.000000000,0.226022965
0.679166558,0.000000000,0.000000000,0.415886638,-0.000000000,-0.000000000,9.800000000,0.973728845,0.000000000,0.000000000,0.227710643
0.683333224,0.000000000,0.000000000,0.401874985,-0.000000000,0.000000000,9.800000000,0.973537855,0.000000000,0.000000000,0.228525807
0.687499890,0.000000000,0.000000000,0.401874985,0.000000000,0.000000000,9.800000000,0.973346183,0.000000000,0.000000000,0.229340811
0.691666556,0.000000000,0.000000000,0.401874985,0.000000000,0.000000000,9.800000000,0.973153829,0.000000000,0.000000000,0.230155655
0.695833222,0.000000000,0.000000000,0.387708401,-0.000000000,0.000000000,9.800000000,0.972967609,0.000000000,0.000000000,0.230941621
0.704166554,0.000000000,0.000000000,0.387708401,0.000000000,0.000000000,9.800000000,0.972593264,0.000000000,0.000000000,0.232513101
0.708333220,0.000000000,0.000000000,0.373392348,0.000000000,0.000000000,9.800000000,0.972412098,0.000000000,0.000000000,0.233269611
0.712499886,0.000000000,0.000000000,0.373392348,0.000000000,0.000000000,9.800000000,0.972230343,0.000000000,0.000000000,0.234025980
0.716666552,0.000000000,0.000000000,0.373392348,0.000000000,0.000000000,9.800000000,0.972048000,0.000000000,0.000000000,0.234782208
0.720833218,0.000000000,0.000000000,0.358932346,0.000000000,0.000000000,9.800000000,0.971872164,0.000000000,0.000000000,0.235509016
0.729166550,0.000000000,0.000000000,0.358932346,0.000000000,0.000000000,9.800000000,0.971518862,0.000000000,0.000000000,0.236962237
0.733333216,0.000000000,0.000000000,0.344333968,0.000000000,0.000000000,9.800000000,0.971348624,0.000000000,0.000000000,0.237659107
0.737499882,0.000000000,0.000000000,0.344333968,0.000000000,0.000000000,9.800000000,0.971177886,0.000000000,0.000000000,0.238355854
0.741666548,0.000000000,0.000000000,0.344333968,0.000000000,0.000000000,9.800000000,0.971006649,0.000000000,0.000000000,0.239052480
0.745833214,0.000000000,0.000000000,0.329602844,0.000000000,0.000000000,9.800000000,0.970842269,0.000000000,0.000000000,0.239719187
0.754166546,0.000000000,0.000000000,0.329602844,0.000000000,0.000000000,9.800000000,0.970512137,0.000000000,0.000000000,0.241052262
0.758333212,0.000000000,0.000000000,0.314744651,0.000000000,0.000000000,9.800000000,0.970353866,0.000000000,0.000000000,0.241688592
0.762499878,0.000000000,0.000000000,0.314744651,0.000000000,0.000000000,9.800000000,0.970195178,0.000000000,0.000000000,0.242324818
0.766666544,0.000000000,0.000000000,0.314744651,0.000000000,0.000000000,9.800000000,0.970036072,0.000000000,0.000000000,0.242960940
0.770833210,0.000000000,0.000000000,0.299765118,-0.000000000,0.000000000,9.800000000,0.969884151,0.000000000,0.000000000,0.243566691
0.779166542,0.000000000,0.000000000,0.299765118,0.000000000,0.000000000,9.800000000,0.969579175,0.000000000,0.000000000,0.244777906
0.783333208,0.000000000,0.000000000,0.284670019,0.000000000,-0.000000000,9.800000000,0.969433836,0.000000000,0.000000000,0.245352884
0.787499874,0.000000000,0.000000000,0.284670019,0.000000000,0.000000000,9.800000000,0.969288156,0.000000000,0.000000000,0.245927776
0.791666540,0.000000000,0.000000000,0.284670019,0.000000000,0.000000000,9.800000000,0.969142135,0.000000000,0.000000000,0.246502581
0.795833206,0.000000000,0.000000000,0.269465176,-0.000000000,0.000000000,9.800000000,0.969003599,0.000000000,0.000000000,0.247046605
0.804166538,0.000000000,0.000000000,0.269465176,-0.000000000,-0.000000000,9.800000000,0.968725612,0.000000000,0.000000000,0.248134418
0.808333204,0.000000000,0.000000000,0.254156448,0.000000000,0.000000000,9.800000000,0.968594090,0.000000000,0.000000000,0.248647316
0.812499870,0.000000000,0.000000000,0.254156448,0.000000000,0.000000000,9.800000000,0.968462298,0.000000000,0.000000000,0.249160145
0.816666536,0.000000000,0.000000000,0.254156448,0.000000000,0.000000000,9.800000000,0.968330234,0.000000000,0.000000000,0.249672903
0.820833202,0.000000000,0.000000000,0.238749738,0.000000000,-0.000000000,9.800000000,0.968205928,0.000000000,0.000000000,0.250154515
0.829166534,0.000000000,0.000000000,0.238749738,0.000000000,-0.000000000,9.800000000,0.967956597,0.000000000,0.000000000,0.251117554
0.833333200,0.000000000,0.000000000,0.223250986,0.000000000,0.000000000,9.800000000,0.967839696,0.000000000,0.000000000,0.251567729
0.837499866,0.000000000,0.000000000,0.223250986,0.000000000,0.000000000,9.800000000,0.967722586,0.000000000,0.000000000,0.252017850
0.841666532,0.000000000,0.000000000,0.223250986,0.000000000,0.000000000,9.800000000,0.967605266,0.000000000,0.000000000,0.252467917
0.845833198,0.000000000,0.000000000,0.207666166,-0.000000000,-0.000000000,9.800000000,0.967495948,0.000000000,0.000000000,0.252886516
0.854166530,0.000000000,0.000000000,0.207666166,0.000000000,-0.000000000,9.800000000,0.967276770,0.000000000,0.000000000,0.253723571
0.858333196,0.000000000,0.000000000,0.192001287,0.000000000,0.000000000,9.800000000,0.967175202,0.000000000,0.000000000,0.254110464
0.862499862,0.000000000,0.000000000,0.192001287,0.000000000,0.000000000,9.800000000,0.967073480,0.000000000,0.000000000,0.254497317
0.866666528,0.000000000,0.000000000,0.192001287,0.000000000,-0.000000000,9.800000000,0.966971603,0.000000000,0.000000000,0.254884128
0.870833194,0.000000000,0.000000000,0.176262388,-0.000000000,-0.000000000,9.800000000,0.966877941,0.000000000,0.000000000,0.255239196
0.879166526,0.000000000,0.000000000,0.176262388,-0.000000000,-0.000000000,9.800000000,0.966690226,0.000000000,0.000000000,0.255949228
0.883333192,0.000000000,0.000000000,0.160455536,-0.000000000,0.000000000,9.800000000,0.966604613,0.000000000,0.000000000,0.256272361
0.887499858,0.000000000,0.000000000,0.160455536,-0.000000000,0.000000000,9.800000000,0.966518891,0.000000000,0.000000000,0.256595466
0.891666524,0.000000000,0.000000000,0.160455536,-0.000000000,-0.000000000,9.800000000,0.966433062,0.000000000,0.000000000,0.256918541
0.895833190,0.000000000,0.000000000,0.144586825,-0.000000000,-0.000000000,9.800000000,0.966355628,0.000000000,0.000000000,0.257209641
0.904166522,0.000000000,0.000000000,0.144586825,-0.000000000,-0.000000000,9.800000000,0.966200498,0.000000000,0.000000000,0.257791771
0.908333188,0.000000000,0.000000000,0.128662374,0.000000000,0.000000000,9.800000000,0.966131363,0.000000000,0.000000000,0.258050748
0.912499854,0.000000000,0.000000000,0.128662374,0.000000000,0.000000000,9.800000000,0.966062159,0.000000000,0.000000000,0.258309707
0.916666520,0.000000000,0.000000000,0.128662374,0.000000000,0.000000000,9.800000000,0.965992885,0.000000000,0.000000000,0.258568647
0.920833186,0.000000000,0.000000000,0.112688321,0.000000000,0.000000000,9.800000000,0.965932155,0.000000000,0.000000000,0.258795424
0.929166518,0.000000000,0.000000000,0.112688321,0.000000000,0.000000000,9.800000000,0.965810535,0.000000000,0.000000000,0.259248934
0.933333184,0.000000000,0.000000000,0.096670824,0.000000000,0.000000000,9.800000000,0.965758304,0.000000000,0.000000000,0.259443441
0.937499850,0.000000000,0.000000000,0.096670824,0.000000000,0.000000000,9.800000000,0.965706033,0.000000000,0.000000000,0.259637937
0.941666516,0.000000000,0.000000000,0.096670824,0.000000000,0.000000000,9.800000000,0.965653723,0.000000000,0.000000000,0.259832422
0.945833182,0.000000000,0.000000000,0.080616059,0.000000000,0.000000000,9.800000000,0.965610070,0.000000000,0.000000000,0.259994600
0.954166514,0.000000000,0.000000000,0.080616059,0.000000000,-0.000000000,9.800000000,0.965522684,0.000000000,0.000000000,0.260318934
0.958333180,0.000000000,0.000000000,0.064530215,0.000000000,0.000000000,9.800000000,0.965487678,0.000000000,0.000000000,0.260448735
0.962499846,0.000000000,0.000000000,0.064530215,-0.000000000,0.000000000,9.800000000,0.965452655,0.000000000,0.000000000,0.260578530
0.966666512,0.000000000,0.000000000,0.064530215,-0.000000000,0.000000000,9.800000000,0.965417615,0.000000000,0.000000000,0.260708321
0.970833178,0.000000000,0.000000000,0.048419494,-0.000000000,0.000000000,9.800000000,0.965391311,0.000000000,0.000000000,0.260805706
0.979166510,0.000000000,0.000000000,0.048419494,-0.000000000,-0.000000000,9.800000000,0.965338675,0.000000000,0.000000000,0.261000466
0.983333176,0.000000000,0.000000000,0.032290106,0.000000000,0.000000000,9.800000000,0.965321115,0.000000000,0.000000000,0.261065405
0.987499842,0.000000000,0.000000000,0.032290106,0.000000000,0.000000000,9.800000000,0.965303550,0.000000000,0.000000000,0.261130342
0.991666508,0.000000000,0.000000000,0.032290106,0.000000000,0.000000000,9.800000000,0.965285982,0.000000000,0.000000000,0.261195279
0.995833174,0.000000000,0.000000000,0.016148269,0.000000000,0.000000000,9.800000000,0.965277194,0.000000000,0.000000000,0.261227753
1.004166506,0.000000000,0.000000000,0.016148269,0.000000000,-0.000000000,9.800000000,0.965259615,0.000000000,0.000000000,0.261292700
1.008333172,0.000000000,0.000000000,0.000000207,-0.000000000,-0.000000000,9.800000000,0.965259615,0.000000000,0.000000000,0.261292701
1.012499838,0.000000000,0.000000000,0.000000207,-0.000000000,0.000000000,9.800000000,0.965259615,0.000000000,0.000000000,0.261292701
1.016666504,0.000000000,0.000000000,0.000000207,-0.000000000,0.000000000,9.800000000,0.965259615,0.000000000,0.000000000,0.261292702
1.020833170,0.000000000,0.000000000,-0.016147856,-0.000000000,0.000000000,9.800000000,0.965268405,0.000000000,0.000000000,0.261260229
1.029166502,0.000000000,0.000000000,-0.016147856,-0.000000000,0.000000000,9.800000000,0.965285981,0.000000000,0.000000000,0.261195282
1.033333168,0.000000000,0.000000000,-0.032289692,0.000000000,0.000000000,9.800000000,0.965303549,0.000000000,0.000000000,0.261130347
1.037499834,0.000000000,0.000000000,-0.032289692,0.000000000,0.000000000,9.800000000,0.965321113,0.000000000,0.000000000,0.261065410
1.041666500,0.000000000,0.000000000,-0.032289692,0.000000000,0.000000000,9.800000000,0.965338673,0.000000000,0.000000000,0.261000472
1.045833166,0.000000000,0.000000000,-0.048419081,0.000000000,0.000000000,9.800000000,0.965364996,0.000000000,0.000000000,0.260903094
1.054166498,0.000000000,0.000000000,-0.048419081,0.000000000,0.000000000,9.800000000,0.965417613,0.000000000,0.000000000,0.260708330
1.058333164,0.000000000,0.000000000,-0.064529803,0.000000000,0.000000000,9.800000000,0.965452653,0.000000000,0.000000000,0.260578540
1.062499830,0.000000000,0.000000000,-0.064529803,0.000000000,0.000000000,9.800000000,0.965487675,0.000000000,0.000000000,0.260448745
1.066666496,0.000000000,0.000000000,-0.064529803,-0.000000000,0.000000000,9.800000000,0.965522681,0.000000000,0.000000000,0.260318945
1.070833162,0.000000000,0.000000000,-0.080615648,0.000000000,0.000000000,9.800000000,0.965566387,0.000000000,0.000000000,0.260156783
1.079166494,0.000000000,0.000000000,-0.080615648,0.000000000,0.000000000,9.800000000,0.965653719,0.000000000,0.000000000,0.259832436
1.083333160,0.000000000,0.000000000,-0.096670414,0.000000000,-0.000000000,9.800000000,0.965706029,0.000000000,0.000000000,0.259637951
1.087499826,0.000000000,0.000000000,-0.096670414,0.000000000,-0.000000000,9.800000000,0.965758300,0.000000000,0.000000000,0.259443456
1.091666492,0.000000000,0.000000000,-0.096670414,0.000000000,-0.000000000,9.800000000,0.965810531,0.000000000,0.000000000,0.259248950
1.095833158,0.000000000,0.000000000,-0.112687912,0.000000000,-0.000000000,9.800000000,0.965871367,0.000000000,0.000000000,0.259022203
1.104166490,0.000000000,0.000000000,-0.112687912,0.000000000,0.000000000,9.800000000,0.965992880,0.000000000,0.000000000,0.258568666
1.108333156,0.000000000,0.000000000,-0.128661966,0.000000000,-0.000000000,9.800000000,0.966062154,0.000000000,0.000000000,0.258309727
1.112499822,0.000000000,0.000000000,-0.128661966,0.000000000,-0.000000000,9.800000000,0.966131358,0.000000000,0.000000000,0.258050768
1.116666488,0.000000000,0.000000000,-0.128661966,0.000000000,-0.000000000,9.800000000,0.966200493,0.000000000,0.000000000,0.257791792
1.120833154,0.000000000,0.000000000,-0.144586418,0.000000000,0.000000000,9.800000000,0.966278101,0.000000000,0.000000000,0.257500740
1.129166486,0.000000000,0.000000000,-0.144586418,0.000000000,0.000000000,9.800000000,0.966433056,0.000000000,0.000000000,0.256918565
1.133333152,0.000000000,0.000000000,-0.160455130,0.000000000,0.000000000,9.800000000,0.966518885,0.000000000,0.000000000,0.256595490
1.137499818,0.000000000,0.000000000,-0.160455130,0.000000000,-0.000000000,9.800000000,0.966604606,0.000000000,0.000000000,0.256272386
1.141666484,0.000000000,0.000000000,-0.160455130,0.000000000,-0.000000000,9.800000000,0.966690219,0.000000000,0.000000000,0.255949254
1.145833150,0.000000000,0.000000000,-0.176261984,0.000000000,0.000000000,9.800000000,0.966784142,0.000000000,0.000000000,0.255594256
1.154166482,0.000000000,0.000000000,-0.176261984,0.000000000,0.000000000,9.800000000,0.966971596,0.000000000,0.000000000,0.254884157
1.158333148,0.000000000,0.000000000,-0.192000885,-0.000000000,0.000000000,9.800000000,0.967073472,0.000000000,0.000000000,0.254497346
1.162499814,0.000000000,0.000000000,-0.192000885,-0.000000000,0.000000000,9.800000000,0.967175194,0.000000000,0.000000000,0.254110495
1.166666480,0.000000000,0.000000000,-0.192000885,-0.000000000,0.000000000,9.800000000,0.967276762,0.000000000,0.000000000,0.253723602
1.170833146,0.000000000,0.000000000,-0.207665766,0.000000000,0.000000000,9.800000000,0.967386441,0.000000000,0.000000000,0.253305099
1.179166478,0.000000000,0.000000000,-0.207665766,0.000000000,0.000000000,9.800000000,0.967605257,0.000000000,0.000000000,0.252467950
1.183333144,0.000000000,0.000000000,-0.223250588,0.000000000,0.000000000,9.800000000,0.967722577,0.000000000,0.000000000,0.252017884
1.187499810,0.000000000,0.000000000,-0.223250588,0.000000000,0.000000000,9.800000000,0.967839687,0.000000000,0.000000000,0.251567764
1.191666476,0.000000000,0.000000000,-0.223250588,0.000000000,0.000000000,9.800000000,0.967956588,0.000000000,0.000000000,0.251117589
1.195833142,0.000000000,0.000000000,-0.238749342,-0.000000000,0.000000000,9.800000000,0.968081373,0.000000000,0.000000000,0.250636102
1.204166474,0.000000000,0.000000000,-0.238749342,-0.000000000,0.000000000,9.800000000,0.968330224,0.000000000,0.000000000,0.249672942
1.208333140,0.000000000,0.000000000,-0.254156055,-0.000000000,0.000000000,9.800000000,0.968462288,0.000000000,0.000000000,0.249160184
1.212499806,0.000000000,0.000000000,-0.254156055,0.000000000,0.000000000,9.800000000,0.968594080,0.000000000,0.000000000,0.248647356
1.216666472,0.000000000,0.000000000,-0.254156055,0.000000000,0.000000000,9.800000000,0.968725601,0.000000000,0.000000000,0.248134459
1.220833138,0.000000000,0.000000000,-0.269464785,-0.000000000,0.000000000,9.800000000,0.968864747,0.000000000,0.000000000,0.247590592
1.229166470,0.000000000,0.000000000,-0.269464785,-0.000000000,0.000000000,9.800000000,0.969142124,0.000000000,0.000000000,0.246502624
1.233333136,0.000000000,0.000000000,-0.284669632,-0.000000000,0.000000000,9.800000000,0.969288145,0.000000000,0.000000000,0.245927820
1.237499802,0.000000000,0.000000000,-0.284669632,-0.000000000,0.000000000,9.800000000,0.969433825,0.000000000,0.000000000,0.245352929
1.241666468,0.000000000,0.000000000,-0.284669632,0.000000000,0.000000000,9.800000000,0.969579164,0.000000000,0.000000000,0.244777952
1.245833134,0.000000000,0.000000000,-0.299764733,0.000000000,-0.000000000,9.800000000,0.969731841,0.000000000,0.000000000,0.244172392
1.254166466,0.000000000,0.000000000,-0.299764733,0.000000000,-0.000000000,9.800000000,0.970036060,0.000000000,0.000000000,0.242960988
1.258333132,0.000000000,0.000000000,-0.314744269,0.000000000,0.000000000,9.800000000,0.970195165,0.000000000,0.000000000,0.242324867
1.262499798,0.000000000,0.000000000,-0.314744269,0.000000000,0.000000000,9.800000000,0.970353853,0.000000000,0.000000000,0.241688641
1.266666464,0.000000000,0.000000000,-0.314744269,0.000000000,0.000000000,9.800000000,0.970512124,0.000000000,0.000000000,0.241052312
1.270833130,0.000000000,0.000000000,-0.329602465,0.000000000,-0.000000000,9.800000000,0.970677419,0.000000000,0.000000000,0.240385832
1.279166462,0.000000000,0.000000000,-0.329602465,0.000000000,-0.000000000,9.800000000,0.971006636,0.000000000,0.000000000,0.239052532
1.283333128,0.000000000,0.000000000,-0.344333593,-0.000000000,0.000000000,9.800000000,0.971177873,0.000000000,0.000000000,0.238355908
1.287499794,0.000000000,0.000000000,-0.344333593,0.000000000,0.000000000,9.800000000,0.971348611,0.000000000,0.000000000,0.237659161
1.291666460,0.000000000,0.000000000,-0.344333593,0.000000000,0.000000000,9.800000000,0.971518848,0.000000000,0.000000000,0.236962291
1.295833126,0.000000000,0.000000000,-0.358931974,0.000000000,-0.000000000,9.800000000,0.971695771,0.000000000,0.000000000,0.236235748
1.304166458,0.000000000,0.000000000,-0.358931974,0.000000000,-0.000000000,9.800000000,0.972047986,0.000000000,0.000000000,0.234782265
1.308333124,0.000000000,0.000000000,-0.373391980,0.000000000,-0.000000000,9.800000000,0.972230329,0.000000000,0.000000000,0.234026038
1.312499790,0.000000000,0.000000000,-0.373391980,0.000000000,-0.000000000,9.800000000,0.972412084,0.000000000,0.000000000,0.233269670
1.316666456,0.000000000,0.000000000,-0.373391980,0.000000000,-0.000000000,9.800000000,0.972593250,0.000000000,0.000000000,0.232513160
1.320833122,0.000000000,0.000000000,-0.387708036,0.000000000,0.000000000,9.800000000,0.972780740,0.000000000,0.000000000,0.231727496
1.329166454,0.000000000,0.000000000,-0.387708036,-0.000000000,0.000000000,9.800000000,0.973153814,0.000000000,0.000000000,0.230155716
1.333333120,0.000000000,0.000000000,-0.401874624,0.000000000,-0.000000000,9.800000000,0.973346169,0.000000000,0.000000000,0.229340873
1.337499786,0.000000000,0.000000000,-0.401874624,0.000000000,0.000000000,9.800000000,0.973537840,0.000000000,0.000000000,0.228525870
1.341666452,0.000000000,0.000000000,-0.401874624,0.000000000,0.000000000,9.800000000,0.973728830,0.000000000,0.000000000,0.227710707
1.345833118,0.000000000,0.000000000,-0.415886281,0.000000000,0.000000000,9.800000000,0.973925760,0.000000000,0.000000000,0.226866954
1.354166450,0.000000000,0.000000000,-0.415886281,0.000000000,0.000000000,9.800000000,0.974317426,0.000000000,0.000000000,0.225178938
1.358333116,0.000000000,0.000000000,-0.429737607,0.000000000,0.000000000,9.800000000,0.974518635,0.000000000,0.000000000,0.224306554
1.362499782,0.000000000,0.000000000,-0.429737607,0.000000000,0.000000000,9.800000000,0.974719063,0.000000000,0.000000000,0.223433991
1.366666448,0.000000000,0.000000000,-0.429737607,0.000000000,0.000000000,9.800000000,0.974918710,0.000000000,0.000000000,0.222561249
1.370833114,0.000000000,0.000000000,-0.443423260,-0.000000000,0.000000000,9.800000000,0.975123895,0.000000000,0.000000000,0.221660526
1.379166446,0.000000000,0.000000000,-0.443423260,-0.000000000,0.000000000,9.800000000,0.975531770,0.000000000,0.000000000,0.219858513
1.383333112,0.000000000,0.000000000,-0.456937965,0.000000000,0.000000000,9.800000000,0.975740623,0.000000000,0.000000000,0.218929752
1.387499778,0.000000000,0.000000000,-0.456937965,0.000000000,0.000000000,9.800000000,0.975948592,0.000000000,0.000000000,0.218000793
1.391666444,0.000000000,0.000000000,-0.456937965,0.000000000,0.000000000,9.800000000,0.976155677,0.000000000,0.000000000,0.217071636
1.395833110,0.000000000,0.000000000,-0.470276512,0.000000000,0.000000000,9.800000000,0.976367882,0.000000000,0.000000000,0.216115151
1.404166442,0.000000000,0.000000000,-0.470276512,0.000000000,0.000000000,9.800000000,0.976789482,0.000000000,0.000000000,0.214201559
1.408333108,0.000000000,0.000000000,-0.483433759,0.000000000,0.000000000,9.800000000,0.977004720,0.000000000,0.000000000,0.213217673
1.412499774,0.000000000,0.000000000,-0.483433759,0.000000000,0.000000000,9.800000000,0.977218968,0.000000000,0.000000000,0.212233572
1.416666440,0.000000000,0.000000000,-0.483433759,0.000000000,0.000000000,9.800000000,0.977432224,0.000000000,0.000000000,0.211249255
1.420833106,0.000000000,0.000000000,-0.496404632,0.000000000,0.000000000,9.800000000,0.977650170,0.000000000,0.000000000,0.210238305
1.429166438,0.000000000,0.000000000,-0.496404632,0.000000000,0.000000000,9.800000000,0.978082925,0.000000000,0.000000000,0.208215732
1.433333104,0.000000000,0.000000000,-0.509184133,-0.000000000,-0.000000000,9.800000000,0.978303250,0.000000000,0.000000000,0.207178064
1.437499770,0.000000000,0.000000000,-0.509184133,-0.000000000,0.000000000,9.800000000,0.978522474,0.000000000,0.000000000,0.206140164
1.441666436,0.000000000,0.000000000,-0.509184133,-0.000000000,0.000000000,9.800000000,0.978740597,0.000000000,0.000000000,0.205102031
1.445833102,0.000000000,0.000000000,-0.521767333,-0.000000000,0.000000000,9.800000000,0.978962968,0.000000000,0.000000000,0.204038004
1.454166434,0.000000000,0.000000000,-0.521767333,0.000000000,0.000000000,9.800000000,0.979404239,0.000000000,0.000000000,0.201909229
1.458333100,0.000000000,0.000000000,-0.534149382,-0.000000000,0.000000000,9.800000000,0.979628319,0.000000000,0.000000000,0.200819212
1.462499766,0.000000000,0.000000000,-0.534149382,0.000000000,0.000000000,9.800000000,0.979851187,0.000000000,0.000000000,0.199728947
1.466666432,0.000000000,0.000000000,-0.534149382,0.000000000,0.000000000,9.800000000,0.980072840,0.000000000,0.000000000,0.198638434
1.470833098,0.000000000,0.000000000,-0.534149382,-0.000000000,0.000000000,9.800000000,0.980293281,0.000000000,0.000000000,0.197547675
1.479166430,0.000000000,0.000000000,-0.546325506,0.000000000,-0.000000000,9.800000000,0.980740429,0.000000000,0.000000000,0.195315669
1.483333096,0.000000000,0.000000000,-0.558291012,0.000000000,-0.000000000,9.800000000,0.980966939,0.000000000,0.000000000,0.194174832
1.487499762,0.000000000,0.000000000,-0.558291012,0.000000000,-0.000000000,9.800000000,0.981192121,0.000000000,0.000000000,0.193033732
1.491666428,0.000000000,0.000000000,-0.558291012,0.000000000,-0.000000000,9.800000000,0.981415976,0.000000000,0.000000000,0.191892372
1.495833094,0.000000000,0.000000000,-0.570041285,0.000000000,-0.000000000,9.800000000,0.981643172,0.000000000,0.000000000,0.190726721
1.504166426,0.000000000,0.000000000,-0.570041285,0.000000000,-0.000000000,9.800000000,0.982093412,0.000000000,0.000000000,0.188394614
1.508333092,0.000000000,0.000000000,-0.581571797,-0.000000000,-0.000000000,9.800000000,0.982320951,0.000000000,0.000000000,0.187204564
1.512499758,0.000000000,0.000000000,-0.581571797,0.000000000,-0.000000000,9.800000000,0.982547049,0.000000000,0.000000000,0.186014239
1.516666424,0.000000000,0.000000000,-0.581571797,0.000000000,0.000000000,9.800000000,0.982771704,0.000000000,0.000000000,0.184823641
1.520833090,0.000000000,0.000000000,-0.592878103,0.000000000,0.000000000,9.800000000,0.982999241,0.000000000,0.000000000,0.183609618
1.529166422,0.000000000,0.000000000,-0.592878103,0.000000000,0.000000000,9.800000000,0.983449817,0.000000000,0.000000000,0.181180733
1.533333088,0.000000000,0.000000000,-0.603955842,0.000000000,-0.000000000,9.800000000,0.983677007,0.000000000,0.000000000,0.179943172
1.537499754,0.000000000,0.000000000,-0.603955842,0.000000000,-0.000000000,9.800000000,0.983902640,0.000000000,0.000000000,0.178705327
1.541666420,0.000000000,0.000000000,-0.603955842,0.000000000,-0.000000000,9.800000000,0.984126716,0.000000000,0.000000000,0.177467200
1.545833086,0.000000000,0.000000000,-0.614800745,0.000000000,0.000000000,9.800000000,0.984353215,0.000000000,0.000000000,0.176206551
1.554166418,0.000000000,0.000000000,-0.614800745,-0.000000000,0.000000000,9.800000000,0.984801367,0.000000000,0.000000000,0.173684388
1.558333084,0.000000000,0.000000000,-0.625408631,0.000000000,0.000000000,9.800000000,0.985026831,0.000000000,0.000000000,0.172401109
1.562499750,0.000000000,0.000000000,-0.625408631,-0.000000000,-0.000000000,9.800000000,0.985250622,0.000000000,0.000000000,0.171117538
1.566666416,0.000000000,0.000000000,-0.625408631,0.000000000,0.000000000,9.800000000,0.985472741,0.000000000,0.000000000,0.169833676
1.570833082,0.000000000,0.000000000,-0.635775409,0.000000000,0.000000000,9.800000000,0.985696826,0.000000000,0.000000000,0.168528237
1.579166414,0.000000000,0.000000000,-0.635775409,0.000000000,0.000000000,9.800000000,0.986139809,0.000000000,0.000000000,0.165916475
1.583333080,0.000000000,0.000000000,-0.645897085,-0.000000000,-0.000000000,9.800000000,0.986362177,0.000000000,0.000000000,0.164589357
1.587499746,0.000000000,0.000000000,-0.645897085,-0.000000000,-0.000000000,9.800000000,0.986582758,0.000000000,0.000000000,0.163261941
1.591666412,0.000000000,0.000000000,-0.645897085,-0.000000000,-0.000000000,9.800000000,0.986801553,0.000000000,0.000000000,0.161934230
1.595833078,0.000000000,0.000000000,-0.655769755,-0.000000000,0.000000000,9.800000000,0.987021865,0.000000000,0.000000000,0.160585924
1.604166410,0.000000000,0.000000000,-0.655769755,-0.000000000,0.000000000,9.800000000,0.987456960,0.000000000,0.000000000,0.157888415
1.608333076,0.000000000,0.000000000,-0.665389613,0.000000000,-0.000000000,9.800000000,0.987674881,0.000000000,0.000000000,0.156519423
1.612499742,0.000000000,0.000000000,-0.665389613,0.000000000,0.000000000,9.800000000,0.987890903,0.000000000,0.000000000,0.155150131
1.616666408,0.000000000,0.000000000,-0.665389613,0.000000000,0.000000000,9.800000000,0.988105028,0.000000000,0.000000000,0.153780540
1.620833074,0.000000000,0.000000000,-0.674752951,0.000000000,-0.000000000,9.800000000,0.988320226,0.000000000,0.000000000,0.152391374
1.629166406,0.000000000,0.000000000,-0.674752951,0.000000000,0.000000000,9.800000000,0.988744763,0.000000000,0.000000000,0.149612143
1.633333072,0.000000000,0.000000000,-0.683856159,-0.000000000,0.000000000,9.800000000,0.988956912,0.000000000,0.000000000,0.148203327
1.637499738,0.000000000,0.000000000,-0.683856159,0.000000000,0.000000000,9.800000000,0.989167054,0.000000000,0.000000000,0.146794210
1.641666404,0.000000000,0.000000000,-0.683856159,-0.000000000,0.000000000,9.800000000,0.989375187,0.000000000,0.000000000,0.145384795
1.645833070,0.000000000,0.000000000,-0.692695727,0.000000000,0.000000000,9.800000000,0.989583964,0.000000000,0.000000000,0.143956861
1.654166402,0.000000000,0.000000000,-0.692695727,0.000000000,0.000000000,9.800000000,0.989995335,0.000000000,0.000000000,0.141100097
1.658333068,0.000000000,0.000000000,-0.701268248,0.000000000,-0.000000000,9.800000000,0.990200422,0.000000000,0.000000000,0.139653588
1.662499734,0.000000000,0.000000000,-0.701268248,0.000000000,-0.000000000,9.800000000,0.990403395,0.000000000,0.000000000,0.138206781
1.666666400,0.000000000,0.000000000,-0.701268248,0.000000000,-0.000000000,9.800000000,0.990604255,0.000000000,0.000000000,0.136759679
1.670833066,0.000000000,0.000000000,-0.709570417,0.000000000,0.000000000,9.800000000,0.990805341,0.000000000,0.000000000,0.135295148
1.679166398,0.000000000,0.000000000,-0.709570417,-0.000000000,0.000000000,9.800000000,0.991201015,0.000000000,0.000000000,0.132365203
1.683333064,0.000000000,0.000000000,-0.717599033,-0.000000000,-0.000000000,9.800000000,0.991397793,0.000000000,0.000000000,0.130883212
1.687499730,0.000000000,0.000000000,-0.717599033,-0.000000000,-0.000000000,9.800000000,0.991592356,0.000000000,0.000000000,0.129400929
1.691666396,0.000000000,0.000000000,-0.717599033,-0.000000000,0.000000000,9.800000000,0.991784701,0.000000000,0.000000000,0.127918357
1.695833062,0.000000000,0.000000000,-0.725351002,-0.000000000,-0.000000000,9.800000000,0.991976873,0.000000000,0.000000000,0.126419478
1.704166394,0.000000000,0.000000000,-0.725351002,-0.000000000,-0.000000000,9.800000000,0.992354418,0.000000000,0.000000000,0.123420858
1.708333060,0.000000000,0.000000000,-0.732823333,0.000000000,-0.000000000,9.800000000,0.992541690,0.000000000,0.000000000,0.121905672
1.712499726,0.000000000,0.000000000,-0.732823333,0.000000000,-0.000000000,9.800000000,0.992726649,0.000000000,0.000000000,0.120390203
1.716666392,0.000000000,0.000000000,-0.732823333,0.000000000,0.000000000,9.800000000,0.992909293,0.000000000,0.000000000,0.118874452
1.720833058,0.000000000,0.000000000,-0.740013148,0.000000000,0.000000000,9.800000000,0.993091381,0.000000000,0.000000000,0.117343549
1.729166390,0.000000000,0.000000000,-0.740013148,0.000000000,0.000000000,9.800000000,0.993448475,0.000000000,0.000000000,0.114280911
1.733333056,0.000000000,0.000000000,-0.746917673,-0.000000000,-0.000000000,9.800000000,0.993625103,0.000000000,0.000000000,0.112734889
1.737499722,0.000000000,0.000000000,-0.746917673,-0.000000000,-0.000000000,9.800000000,0.993799324,0.000000000,0.000000000,0.111188595
1.741666388,0.000000000,0.000000000,-0.746917673,-0.000000000,-0.000000000,9.800000000,0.993971139,0.000000000,0.000000000,0.109642032
1.745833054,0.000000000,0.000000000,-0.753534247,-0.000000000,-0.000000000,9.800000000,0.994142037,0.000000000,0.000000000,0.108081499
1.754166386,0.000000000,0.000000000,-0.753534247,-0.000000000,-0.000000000,9.800000000,0.994476483,0.000000000,0.000000000,0.104959638
1.758333052,0.000000000,0.000000000,-0.759860320,-0.000000000,0.000000000,9.800000000,0.994641392,0.000000000,0.000000000,0.103385209
1.762499718,0.000000000,0.000000000,-0.759860320,-0.000000000,0.000000000,9.800000000,0.994803809,0.000000000,0.000000000,0.101810521
1.766666384,0.000000000,0.000000000,-0.759860320,-0.000000000,0.000000000,9.800000000,0.994963732,0.000000000,0.000000000,0.100235578
1.770833050,0.000000000,0.000000000,-0.765893452,0.000000000,0.000000000,9.800000000,0.995122403,0.000000000,0.000000000,0.098647876
1.779166382,0.000000000,0.000000000,-0.765893452,-0.000000000,0.000000000,9.800000000,0.995432142,0.000000000,0.000000000,0.095471722
1.783333048,0.000000000,0.000000000,-0.771631318,0.000000000,0.000000000,9.800000000,0.995584333,0.000000000,0.000000000,0.093871378
1.787499714,0.000000000,0.000000000,-0.771631318,0.000000000,0.000000000,9.800000000,0.995733951,0.000000000,0.000000000,0.092270791
1.791666380,0.000000000,0.000000000,-0.771631318,0.000000000,0.000000000,9.800000000,0.995880996,0.000000000,0.000000000,0.090669965
1.795833046,0.000000000,0.000000000,-0.777071705,0.000000000,-0.000000000,9.800000000,0.996026476,0.000000000,0.000000000,0.089057616
1.804166378,0.000000000,0.000000000,-0.777071705,-0.000000000,-0.000000000,9.800000000,0.996309605,0.000000000,0.000000000,0.085832222
1.808333044,0.000000000,0.000000000,-0.782212517,0.000000000,0.000000000,9.800000000,0.996448155,0.000000000,0.000000000,0.084208514
1.812499710,0.000000000,0.000000000,-0.782212517,-0.000000000,0.000000000,9.800000000,0.996584059,0.000000000,0.000000000,0.082584581
1.816666376,0.000000000,0.000000000,-0.782212517,-0.000000000,0.000000000,9.800000000,0.996717316,0.000000000,0.000000000,0.080960430
1.820833042,0.000000000,0.000000000,-0.787051770,0.000000000,0.000000000,9.800000000,0.996848727,0.000000000,0.000000000,0.079326014
1.829166374,0.000000000,0.000000000,-0.787051770,0.000000000,0.000000000,9.800000000,0.997103506,0.000000000,0.000000000,0.076056545
1.833333040,0.000000000,0.000000000,-0.787051770,-0.000000000,0.000000000,9.800000000,0.997226875,0.000000000,0.000000000,0.074421502
1.837499706,0.000000000,0.000000000,-0.791587601,0.000000000,0.000000000,9.800000000,0.997348250,0.000000000,0.000000000,0.072776834
1.841666372,0.000000000,0.000000000,-0.791587601,0.000000000,0.000000000,9.800000000,0.997466913,0.000000000,0.000000000,0.071131969
1.845833038,0.000000000,0.000000000,-0.795818259,0.000000000,0.000000000,9.800000000,0.997583476,0.000000000,0.000000000,0.069478117
1.854166370,0.000000000,0.000000000,-0.795818259,0.000000000,0.000000000,9.800000000,0.997808374,0.000000000,0.000000000,0.066169845
1.858333036,0.000000000,0.000000000,-0.799742115,0.000000000,-0.000000000,9.800000000,0.997917237,0.000000000,0.000000000,0.064507277
1.862499702,0.000000000,0.000000000,-0.799742115,-0.000000000,-0.000000000,9.800000000,0.998023329,0.000000000,0.000000000,0.062844529
1.866666368,0.000000000,0.000000000,-0.799742115,0.000000000,-0.000000000,9.800000000,0.998126651,0.000000000,0.000000000,0.061181607
1.870833034,0.000000000,0.000000000,-0.803357654,-0.000000000,0.000000000,9.800000000,0.998227650,0.000000000,0.000000000,0.059510996
1.879166366,0.000000000,0.000000000,-0.803357654,-0.000000000,0.000000000,9.800000000,0.998421260,0.000000000,0.000000000,0.056169278
1.883333032,0.000000000,0.000000000,-0.806663484,0.000000000,-0.000000000,9.800000000,0.998514245,0.000000000,0.000000000,0.054491304
1.887499698,0.000000000,0.000000000,-0.806663484,0.000000000,-0.000000000,9.800000000,0.998604410,0.000000000,0.000000000,0.052813176
1.891666364,0.000000000,0.000000000,-0.806663484,0.000000000,-0.000000000,9.800000000,0.998691755,0.000000000,0.000000000,0.051134899
1.895833030,0.000000000,0.000000000,-0.809658330,0.000000000,-0.000000000,9.800000000,0.998776588,0.000000000,0.000000000,0.049450246
1.904166362,0.000000000,0.000000000,-0.809658330,0.000000000,-0.000000000,9.800000000,0.998937729,0.000000000,0.000000000,0.046080522
1.908333028,0.000000000,0.000000000,-0.812341038,0.000000000,0.000000000,9.800000000,0.999014284,0.000000000,0.000000000,0.044389878
1.912499694,0.000000000,0.000000000,-0.812341038,0.000000000,0.000000000,9.800000000,0.999087977,0.000000000,0.000000000,0.042699106
1.916666360,0.000000000,0.000000000,-0.812341038,0.000000000,0.000000000,9.800000000,0.999158809,0.000000000,0.000000000,0.041008213
1.920833026,0.000000000,0.000000000,-0.814710573,-0.000000000,0.000000000,9.800000000,0.999226974,0.000000000,0.000000000,0.039312269
1.929166358,0.000000000,0.000000000,-0.814710573,-0.000000000,0.000000000,9.800000000,0.999354667,0.000000000,0.000000000,0.035920046
1.933333024,0.000000000,0.000000000,-0.816766021,0.000000000,-0.000000000,9.800000000,0.999414342,0.000000000,0.000000000,0.034219497
1.937499690,0.000000000,0.000000000,-0.816766021,0.000000000,-0.000000000,9.800000000,0.999471122,0.000000000,0.000000000,0.032518850
1.941666356,0.000000000,0.000000000,-0.816766021,0.000000000,-0.000000000,9.800000000,0.999525009,0.000000000,0.000000000,0.030818108
1.945833022,0.000000000,0.000000000,-0.818506591,0.000000000,0.000000000,9.800000000,0.999576108,0.000000000,0.000000000,0.029113652
1.954166354,0.000000000,0.000000000,-0.818506591,0.000000000,0.000000000,9.800000000,0.999669585,0.000000000,0.000000000,0.025704491
1.958333020,0.000000000,0.000000000,-0.819931610,-0.000000000,-0.000000000,9.800000000,0.999712035,0.000000000,0.000000000,0.023996828
1.962499686,0.000000000,0.000000000,-0.819931610,0.000000000,-0.000000000,9.800000000,0.999751567,0.000000000,0.000000000,0.022289096
1.966666352,0.000000000,0.000000000,-0.819931610,-0.000000000,-0.000000000,9.800000000,0.999788183,0.000000000,0.000000000,0.020581298
1.970833018,0.000000000,0.000000000,-0.821040531,-0.000000000,0.000000000,9.800000000,0.999821924,0.000000000,0.000000000,0.018871130
1.979166350,0.000000000,0.000000000,-0.821040531,-0.000000000,0.000000000,9.800000000,0.999880632,0.000000000,0.000000000,0.015450634
1.983333016,0.000000000,0.000000000,-0.821832925,0.000000000,0.000000000,9.800000000,0.999905620,0.000000000,0.000000000,0.013738665
1.987499682,0.000000000,0.000000000,-0.821832925,0.000000000,0.000000000,9.800000000,0.999927677,0.000000000,0.000000000,0.012026655
1.991666348,0.000000000,0.000000000,-0.821832925,0.000000000,0.000000000,9.800000000,0.999946803,0.000000000,0.000000000,0.010314611
1.995833014,0.000000000,0.000000000,-0.822308487,0.000000000,-0.000000000,9.800000000,0.999963006,0.000000000,0.000000000,0.008601545
2.004166346,0.000000000,0.000000000,-0.822308487,0.000000000,0.000000000,9.800000000,0.999986608,0.000000000,0.000000000,0.005175343
2.008333012,0.000000000,0.000000000,-0.822467033,-0.000000000,0.000000000,9.800000000,0.999994008,0.000000000,0.000000000,0.003461887
2.012499678,0.000000000,0.000000000,-0.822467033,-0.000000000,0.000000000,9.800000000,0.999998472,0.000000000,0.000000000,0.001748420
2.016666344,0.000000000,0.000000000,-0.822467033,0.000000000,-0.000000000,9.800000000,0.999999999,0.000000000,0.000000000,0.000034948
2.020833010,0.000000000,0.000000000,-0.822308503,-0.000000000,0.000000000,9.800000000,0.999998592,0.000000000,0.000000000,-0.001678193
2.029166342,0.000000000,0.000000000,-0.822308503,-0.000000000,-0.000000000,9.800000000,0.999986972,0.000000000,0.000000000,-0.005104457
2.033333008,0.000000000,0.000000000,-0.821832958,0.000000000,0.000000000,9.800000000,0.999976767,0.000000000,0.000000000,-0.006816578
2.037499674,0.000000000,0.000000000,-0.821832958,0.000000000,-0.000000000,9.800000000,0.999963630,0.000000000,0.000000000,-0.008528679
2.041666340,0.000000000,0.000000000,-0.821832958,0.000000000,0.000000000,9.800000000,0.999947562,0.000000000,0.000000000,-0.010240755
2.045833006,0.000000000,0.000000000,-0.821040580,-0.000000000,-0.000000000,9.800000000,0.999928582,0.000000000,0.000000000,-0.011951151
2.054166338,0.000000000,0.000000000,-0.821040580,-0.000000000,0.000000000,9.800000000,0.999881846,0.000000000,0.000000000,-0.015371832
2.058333004,0.000000000,0.000000000,-0.819931675,-0.000000000,-0.000000000,9.800000000,0.999854130,0.000000000,0.000000000,-0.017079797
2.062499670,0.000000000,0.000000000,-0.819931675,-0.000000000,-0.000000000,9.800000000,0.999823495,0.000000000,0.000000000,-0.018787713
2.066666336,0.000000000,0.000000000,-0.819931675,0.000000000,-0.000000000,9.800000000,0.999789944,0.000000000,0.000000000,-0.020495574
2.070833002,0.000000000,0.000000000,-0.818506672,-0.000000000,0.000000000,9.800000000,0.999753541,0.000000000,0.000000000,-0.022200407
2.079166334,0.000000000,0.000000000,-0.818506672,-0.000000000,0.000000000,9.800000000,0.999672013,0.000000000,0.000000000,-0.025609875
2.083333000,0.000000000,0.000000000,-0.816766118,-0.000000000,-0.000000000,9.800000000,0.999626988,0.000000000,0.000000000,-0.027310875
2.087499666,0.000000000,0.000000000,-0.816766118,0.000000000,0.000000000,9.800000000,0.999579069,0.000000000,0.000000000,-0.029011795
2.091666332,0.000000000,0.000000000,-0.816766118,-0.000000000,-0.000000000,9.800000000,0.999528256,0.000000000,0.000000000,-0.030712632
2.095832998,0.000000000,0.000000000,-0.814710686,-0.000000000,0.000000000,9.800000000,0.999474687,0.000000000,0.000000000,-0.032409100
2.104166330,0.000000000,0.000000000,-0.814710686,-0.000000000,0.000000000,9.800000000,0.999358912,0.000000000,0.000000000,-0.035801751
2.108332996,0.000000000,0.000000000,-0.812341167,0.000000000,0.000000000,9.800000000,0.999296891,0.000000000,0.000000000,-0.037492991
2.112499662,0.000000000,0.000000000,-0.812341167,0.000000000,-0.000000000,9.800000000,0.999232007,0.000000000,0.000000000,-0.039184124
2.116666328,0.000000000,0.000000000,-0.812341167,0.000000000,0.000000000,9.800000000,0.999164262,0.000000000,0.000000000,-0.040875144
2.120832994,0.000000000,0.000000000,-0.809658476,0.000000000,0.000000000,9.800000000,0.999093893,0.000000000,0.000000000,-0.042560464
2.129166326,0.000000000,0.000000000,-0.809658476,0.000000000,0.000000000,9.800000000,0.998944627,0.000000000,0.000000000,-0.045930735
2.133332992,0.000000000,0.000000000,-0.806663646,0.000000000,-0.000000000,9.800000000,0.998866027,0.000000000,0.000000000,-0.047609445
2.137499658,0.000000000,0.000000000,-0.806663646,0.000000000,-0.000000000,9.800000000,0.998784607,0.000000000,0.000000000,-0.049288020
2.141666324,0.000000000,0.000000000,-0.806663646,-0.000000000,-0.000000000,9.800000000,0.998700366,0.000000000,0.000000000,-0.050966456
2.145832990,0.000000000,0.000000000,-0.803357831,0.000000000,0.000000000,9.800000000,0.998613666,0.000000000,0.000000000,-0.052637871
2.154166322,0.000000000,0.000000000,-0.803357831,0.000000000,0.000000000,9.800000000,0.998431876,0.000000000,0.000000000,-0.055980253
2.158332988,0.000000000,0.000000000,-0.799742308,0.000000000,0.000000000,9.800000000,0.998337220,0.000000000,0.000000000,-0.057643691
2.162499654,0.000000000,0.000000000,-0.799742308,0.000000000,0.000000000,9.800000000,0.998239793,0.000000000,0.000000000,-0.059306969
2.166666320,0.000000000,0.000000000,-0.799742308,0.000000000,0.000000000,9.800000000,0.998139594,0.000000000,0.000000000,-0.060970083
2.170832986,0.000000000,0.000000000,-0.795818468,-0.000000000,-0.000000000,9.800000000,0.998037136,0.000000000,0.000000000,-0.062624869
2.179166318,0.000000000,0.000000000,-0.795818468,-0.000000000,-0.000000000,9.800000000,0.997823992,0.000000000,0.000000000,-0.065933920
2.183332984,0.000000000,0.000000000,-0.791587825,-0.000000000,0.000000000,9.800000000,0.997713900,0.000000000,0.000000000,-0.067579382
2.187499650,0.000000000,0.000000000,-0.791587825,-0.000000000,0.000000000,9.800000000,0.997601096,0.000000000,0.000000000,-0.069224660
2.191666316,0.000000000,0.000000000,-0.791587825,-0.000000000,0.000000000,9.800000000,0.997485578,0.000000000,0.000000000,-0.070869750
2.195832982,0.000000000,0.000000000,-0.787052010,0.000000000,0.000000000,9.800000000,0.997368033,0.000000000,0.000000000,-0.072505223
2.204166314,0.000000000,0.000000000,-0.787052010,-0.000000000,0.000000000,9.800000000,0.997124898,0.000000000,0.000000000,-0.075775579
2.208332980,0.000000000,0.000000000,-0.782212772,0.000000000,0.000000000,9.800000000,0.997000089,0.000000000,0.000000000,-0.077400402
2.212499646,0.000000000,0.000000000,-0.782212772,0.000000000,0.000000000,9.800000000,0.996872633,0.000000000,0.000000000,-0.079025019
2.216666312,0.000000000,0.000000000,-0.782212772,-0.000000000,0.000000000,9.800000000,0.996742529,0.000000000,0.000000000,-0.080649427
2.220832978,0.000000000,0.000000000,-0.777071976,0.000000000,0.000000000,9.800000000,0.996610660,0.000000000,0.000000000,-0.082262946
2.229166310,0.000000000,0.000000000,-0.777071976,0.000000000,0.000000000,9.800000000,0.996339086,0.000000000,0.000000000,-0.085489335
2.233332976,0.000000000,0.000000000,-0.771631604,-0.000000000,0.000000000,9.800000000,0.996200369,0.000000000,0.000000000,-0.087090904
2.237499642,0.000000000,0.000000000,-0.771631604,-0.000000000,-0.000000000,9.800000000,0.996059077,0.000000000,0.000000000,-0.088692249
2.241666308,0.000000000,0.000000000,-0.771631604,-0.000000000,0.000000000,9.800000000,0.995915212,0.000000000,0.000000000,-0.090293364
2.245832974,0.000000000,0.000000000,-0.765893753,0.000000000,0.000000000,9.800000000,0.995769871,0.000000000,0.000000000,-0.091882342
2.254166306,0.000000000,0.000000000,-0.765893753,0.000000000,0.000000000,9.800000000,0.995471584,0.000000000,0.000000000,-0.095059593
2.258332972,0.000000000,0.000000000,-0.759860636,0.000000000,0.000000000,9.800000000,0.995319853,0.000000000,0.000000000,-0.096635347
2.262499638,0.000000000,0.000000000,-0.759860636,0.000000000,0.000000000,9.800000000,0.995165628,0.000000000,0.000000000,-0.098210859
2.266666304,0.000000000,0.000000000,-0.759860636,0.000000000,0.000000000,9.800000000,0.995008909,0.000000000,0.000000000,-0.099786125
2.270832970,0.000000000,0.000000000,-0.753534579,0.000000000,0.000000000,9.800000000,0.994851032,0.000000000,0.000000000,-0.101348030
2.279166302,0.000000000,0.000000000,-0.753534579,0.000000000,-0.000000000,9.800000000,0.994527924,0.000000000,0.000000000,-0.104471086
2.283332968,0.000000000,0.000000000,-0.746918019,0.000000000,0.000000000,9.800000000,0.994364155,0.000000000,0.000000000,-0.106018523
2.287499634,0.000000000,0.000000000,-0.746918019,0.000000000,0.000000000,9.800000000,0.994197978,0.000000000,0.000000000,-0.107565703
2.291666300,0.000000000,0.000000000,-0.746918019,0.000000000,0.000000000,9.800000000,0.994029394,0.000000000,0.000000000,-0.109112622
2.295832966,0.000000000,0.000000000,-0.740013508,-0.000000000,0.000000000,9.800000000,0.993859994,0.000000000,0.000000000,-0.110644982
2.304166298,0.000000000,0.000000000,-0.740013508,-0.000000000,0.000000000,9.800000000,0.993514109,0.000000000,0.000000000,-0.113708908
2.308332964,0.000000000,0.000000000,-0.732823709,0.000000000,-0.000000000,9.800000000,0.993339350,0.000000000,0.000000000,-0.115225589
2.312499630,0.000000000,0.000000000,-0.732823709,0.000000000,-0.000000000,9.800000000,0.993162275,0.000000000,0.000000000,-0.116742001
2.316666296,0.000000000,0.000000000,-0.732823709,0.000000000,-0.000000000,9.800000000,0.992982886,0.000000000,0.000000000,-0.118258141
2.320832962,0.000000000,0.000000000,-0.725351391,-0.000000000,-0.000000000,9.800000000,0.992803047,0.000000000,0.000000000,-0.119758550
2.329166294,0.000000000,0.000000000,-0.725351391,-0.000000000,-0.000000000,9.800000000,0.992436567,0.000000000,0.000000000,-0.122758544
2.333332960,0.000000000,0.000000000,-0.717599437,0.000000000,-0.000000000,9.800000000,0.992251934,0.000000000,0.000000000,-0.124242097
2.337499626,0.000000000,0.000000000,-0.717599437,0.000000000,0.000000000,9.800000000,0.992065084,0.000000000,0.000000000,-0.125725373
2.341666292,0.000000000,0.000000000,-0.717599437,0.000000000,-0.000000000,9.800000000,0.991876016,0.000000000,0.000000000,-0.127208368
2.345832958,0.000000000,0.000000000,-0.709570835,0.000000000,-0.000000000,9.800000000,0.991686884,0.000000000,0.000000000,-0.128674491
2.354166290,0.000000000,0.000000000,-0.709570835,-0.000000000,-0.000000000,9.800000000,0.991302118,0.000000000,0.000000000,-0.131605891
2.358332956,0.000000000,0.000000000,-0.701268680,0.000000000,0.000000000,9.800000000,0.991108787,0.000000000,0.000000000,-0.133054019
2.362499622,0.000000000,0.000000000,-0.701268680,0.000000000,0.000000000,9.800000000,0.990913341,0.000000000,0.000000000,-0.134501863
2.366666288,0.000000000,0.000000000,-0.701268680,-0.000000000,-0.000000000,9.800000000,0.990715779,0.000000000,0.000000000,-0.135949420
2.370832954,0.000000000,0.000000000,-0.692696173,-0.000000000,-0.000000000,9.800000000,0.990518557,0.000000000,0.000000000,-0.137378996
2.379166286,0.000000000,0.000000000,-0.692696173,-0.000000000,-0.000000000,9.800000000,0.990117924,0.000000000,0.000000000,-0.140237288
2.383332952,0.000000000,0.000000000,-0.683856618,0.000000000,-0.000000000,9.800000000,0.989917123,0.000000000,0.000000000,-0.141647767
2.387499618,0.000000000,0.000000000,-0.683856618,-0.000000000,-0.000000000,9.800000000,0.989714313,0.000000000,0.000000000,-0.143057959
2.391666284,0.000000000,0.000000000,-0.683856618,0.000000000,0.000000000,9.800000000,0.989509493,0.000000000,0.000000000,-0.144467860
2.395832950,0.000000000,0.000000000,-0.674753424,-0.000000000,-0.000000000,9.800000000,0.989305432,0.000000000,0.000000000,-0.145858706
2.404166282,0.000000000,0.000000000,-0.674753424,0.000000000,-0.000000000,9.800000000,0.988891445,0.000000000,0.000000000,-0.148639531
2.408332948,0.000000000,0.000000000,-0.665390099,0.000000000,-0.000000000,9.800000000,0.988684446,0.000000000,0.000000000,-0.150010218
2.412499614,0.000000000,0.000000000,-0.665390099,0.000000000,-0.000000000,9.800000000,0.988475548,0.000000000,0.000000000,-0.151380616
2.416666280,0.000000000,0.000000000,-0.665390099,0.000000000,-0.000000000,9.800000000,0.988264750,0.000000000,0.000000000,-0.152750724
2.420832946,0.000000000,0.000000000,-0.655770254,-0.000000000,0.000000000,9.800000000,0.988055142,0.000000000,0.000000000,-0.154100736
2.429166278,0.000000000,0.000000000,-0.655770254,0.000000000,0.000000000,9.800000000,0.987630393,0.000000000,0.000000000,-0.156799895
2.433332944,0.000000000,0.000000000,-0.645897597,0.000000000,0.000000000,9.800000000,0.987418506,0.000000000,0.000000000,-0.158128728
2.437499610,0.000000000,0.000000000,-0.645897597,0.000000000,0.000000000,9.800000000,0.987204831,0.000000000,0.000000000,-0.159457274
2.441666276,0.000000000,0.000000000,-0.645897597,0.000000000,0.000000000,9.800000000,0.986989368,0.000000000,0.000000000,-0.160785532
2.445832942,0.000000000,0.000000000,-0.635775934,-0.000000000,0.000000000,9.800000000,0.986775537,0.000000000,0.000000000,-0.162092691
2.454166274,0.000000000,0.000000000,-0.635775934,-0.000000000,0.000000000,9.800000000,0.986342681,0.000000000,0.000000000,-0.164706152
2.458332940,0.000000000,0.000000000,-0.625409168,0.000000000,0.000000000,9.800000000,0.986127242,0.000000000,0.000000000,-0.165991153
2.462499606,0.000000000,0.000000000,-0.625409168,0.000000000,0.000000000,9.800000000,0.985910129,0.000000000,0.000000000,-0.167275872
2.466666272,0.000000000,0.000000000,-0.625409168,0.000000000,0.000000000,9.800000000,0.985691343,0.000000000,0.000000000,-0.168560307
2.470832938,0.000000000,0.000000000,-0.614801294,0.000000000,-0.000000000,9.800000000,0.985474636,0.000000000,0.000000000,-0.169822677
2.479166270,0.000000000,0.000000000,-0.614801294,0.000000000,-0.000000000,9.800000000,0.985036373,0.000000000,0.000000000,-0.172346580
2.483332936,0.000000000,0.000000000,-0.603956403,0.000000000,-0.000000000,9.800000000,0.984818740,0.000000000,0.000000000,-0.173585857
2.487499602,0.000000000,0.000000000,-0.603956403,0.000000000,-0.000000000,9.800000000,0.984599547,0.000000000,0.000000000,-0.174824860
2.491666268,0.000000000,0.000000000,-0.603956403,0.000000000,-0.000000000,9.800000000,0.984378796,0.000000000,0.000000000,-0.176063586
2.495832934,0.000000000,0.000000000,-0.592878676,-0.000000000,0.000000000,9.800000000,0.984160578,0.000000000,0.000000000,-0.177279321
2.504166266,0.000000000,0.000000000,-0.592878676,-0.000000000,-0.000000000,9.800000000,0.983719637,0.000000000,0.000000000,-0.179709976
2.508332932,0.000000000,0.000000000,-0.581572382,0.000000000,0.000000000,9.800000000,0.983501177,0.000000000,0.000000000,-0.180901727
2.512499598,0.000000000,0.000000000,-0.581572382,0.000000000,-0.000000000,9.800000000,0.983281273,0.000000000,0.000000000,-0.182093213
2.516666264,0.000000000,0.000000000,-0.581572382,0.000000000,0.000000000,9.800000000,0.983059926,0.000000000,0.000000000,-0.183284432
2.520832930,0.000000000,0.000000000,-0.570041881,0.000000000,-0.000000000,9.800000000,0.982841566,0.000000000,0.000000000,-0.184451771
2.529166262,0.000000000,0.000000000,-0.570041881,0.000000000,0.000000000,9.800000000,0.982400689,0.000000000,0.000000000,-0.186785669
2.533332928,0.000000000,0.000000000,-0.558291619,0.000000000,0.000000000,9.800000000,0.982182773,0.000000000,0.000000000,-0.187928180
2.537499594,0.000000000,0.000000000,-0.558291619,0.000000000,0.000000000,9.800000000,0.981963528,0.000000000,0.000000000,-0.189070436
2.541666260,0.000000000,0.000000000,-0.558291619,-0.000000000,0.000000000,9.800000000,0.981742955,0.000000000,0.000000000,-0.190212437
2.545832926,0.000000000,0.000000000,-0.546326124,-0.000000000,-0.000000000,9.800000000,0.981525823,0.000000000,0.000000000,-0.191329713
2.554166258,0.000000000,0.000000000,-0.546326124,0.000000000,-0.000000000,9.800000000,0.981087745,0.000000000,0.000000000,-0.193563520
2.558332924,0.000000000,0.000000000,-0.546326124,-0.000000000,-0.000000000,9.800000000,0.980866800,0.000000000,0.000000000,-0.194680048
2.562499590,0.000000000,0.000000000,-0.534150010,-0.000000000,0.000000000,9.800000000,0.980649550,0.000000000,0.000000000,-0.195771448
2.566666256,0.000000000,0.000000000,-0.534150010,0.000000000,0.000000000,9.800000000,0.980431086,0.000000000,0.000000000,-0.196862606
2.570832922,0.000000000,0.000000000,-0.521767972,0.000000000,-0.000000000,9.800000000,0.980216514,0.000000000,0.000000000,-0.197928234
2.579166254,0.000000000,0.000000000,-0.521767972,0.000000000,-0.000000000,9.800000000,0.979783895,0.000000000,0.000000000,-0.200058787
2.583332920,0.000000000,0.000000000,-0.509184782,0.000000000,0.000000000,9.800000000,0.979571122,0.000000000,0.000000000,-0.201098031
2.587499586,0.000000000,0.000000000,-0.509184782,0.000000000,0.000000000,9.800000000,0.979357245,0.000000000,0.000000000,-0.202137048
2.591666252,0.000000000,0.000000000,-0.509184782,0.000000000,0.000000000,9.800000000,0.979142267,0.000000000,0.000000000,-0.203175837
2.595832918,0.000000000,0.000000000,-0.496405292,0.000000000,0.000000000,9.800000000,0.978931624,0.000000000,0.000000000,-0.204188336
2.604166250,0.000000000,0.000000000,-0.496405292,0.000000000,0.000000000,9.800000000,0.978507196,0.000000000,0.000000000,-0.206212675
2.608332916,0.000000000,0.000000000,-0.483434428,0.000000000,0.000000000,9.800000000,0.978299012,0.000000000,0.000000000,-0.207198079
2.612499582,0.000000000,0.000000000,-0.483434428,0.000000000,0.000000000,9.800000000,0.978089835,0.000000000,0.000000000,-0.208183272
2.616666248,0.000000000,0.000000000,-0.483434428,0.000000000,0.000000000,9.800000000,0.977879666,0.000000000,0.000000000,-0.209168255
2.620832914,0.000000000,0.000000000,-0.470277190,0.000000000,0.000000000,9.800000000,0.977674265,0.000000000,0.000000000,-0.210126226
2.629166246,0.000000000,0.000000000,-0.470277190,0.000000000,0.000000000,9.800000000,0.977260649,0.000000000,0.000000000,-0.212041562
2.633332912,0.000000000,0.000000000,-0.456938653,-0.000000000,-0.000000000,9.800000000,0.977058352,0.000000000,0.000000000,-0.212971774
2.637499578,0.000000000,0.000000000,-0.456938653,-0.000000000,-0.000000000,9.800000000,0.976855170,0.000000000,0.000000000,-0.213901794
2.641666244,0.000000000,0.000000000,-0.456938653,-0.000000000,0.000000000,9.800000000,0.976651102,0.000000000,0.000000000,-0.214831619
2.645832910,0.000000000,0.000000000,-0.443423956,0.000000000,0.000000000,9.800000000,0.976452224,0.000000000,0.000000000,-0.215733758
2.654166242,0.000000000,0.000000000,-0.443423956,0.000000000,0.000000000,9.800000000,0.976051968,0.000000000,0.000000000,-0.217537481
2.658332908,0.000000000,0.000000000,-0.443423956,0.000000000,0.000000000,9.800000000,0.975850591,0.000000000,0.000000000,-0.218439065
2.662499574,0.000000000,0.000000000,-0.429738312,0.000000000,-0.000000000,9.800000000,0.975654634,0.000000000,0.000000000,-0.219312644
2.666666240,0.000000000,0.000000000,-0.429738312,0.000000000,0.000000000,9.800000000,0.975457895,0.000000000,0.000000000,-0.220186048
2.670832906,0.000000000,0.000000000,-0.415886995,-0.000000000,-0.000000000,9.800000000,0.975266752,0.000000000,0.000000000,-0.221031132
2.679166238,0.000000000,0.000000000,-0.415886995,-0.000000000,-0.000000000,9.800000000,0.974882272,0.000000000,0.000000000,-0.222720803
2.683332904,0.000000000,0.000000000,-0.401875345,0.000000000,0.000000000,9.800000000,0.974695459,0.000000000,0.000000000,-0.223536935
2.687499570,0.000000000,0.000000000,-0.401875345,0.000000000,0.000000000,9.800000000,0.974507964,0.000000000,0.000000000,-0.224352911
2.691666236,0.000000000,0.000000000,-0.401875345,0.000000000,0.000000000,9.800000000,0.974319785,0.000000000,0.000000000,-0.225168729
2.695832902,0.000000000,0.000000000,-0.387708766,0.000000000,0.000000000,9.800000000,0.974137592,0.000000000,0.000000000,-0.225955640
2.704166234,0.000000000,0.000000000,-0.387708766,0.000000000,0.000000000,9.800000000,0.973771301,0.000000000,0.000000000,-0.227529018
2.708332900,0.000000000,0.000000000,-0.387708766,0.000000000,0.000000000,9.800000000,0.973587202,0.000000000,0.000000000,-0.228315484
2.712499566,0.000000000,0.000000000,-0.387708766,0.000000000,0.000000000,9.800000000,0.973402468,0.000000000,0.000000000,-0.229101802
2.716666232,0.000000000,0.000000000,-0.373392717,0.000000000,0.000000000,9.800000000,0.973223955,0.000000000,0.000000000,-0.229858943
2.720832898,0.000000000,0.000000000,-0.358932718,-0.000000000,0.000000000,9.800000000,0.973051800,0.000000000,0.000000000,-0.230586633
2.729166230,0.000000000,0.000000000,-0.358932718,-0.000000000,0.000000000,9.800000000,0.972705857,0.000000000,0.000000000,-0.232041625
2.733332896,0.000000000,0.000000000,-0.344334344,0.000000000,0.000000000,9.800000000,0.972539149,0.000000000,0.000000000,-0.232739348
2.737499562,0.000000000,0.000000000,-0.344334344,-0.000000000,0.000000000,9.800000000,0.972371940,0.000000000,0.000000000,-0.233436952
2.741666228,0.000000000,0.000000000,-0.344334344,0.000000000,0.000000000,9.800000000,0.972204231,0.000000000,0.000000000,-0.234134436
2.745832894,0.000000000,0.000000000,-0.329603222,0.000000000,0.000000000,9.800000000,0.972043228,0.000000000,0.000000000,-0.234801967
2.754166226,0.000000000,0.000000000,-0.329603222,0.000000000,0.000000000,9.800000000,0.971719847,0.000000000,0.000000000,-0.236136697
2.758332892,0.000000000,0.000000000,-0.314745033,0.000000000,0.000000000,9.800000000,0.971564798,0.000000000,0.000000000,-0.236773822
2.762499558,0.000000000,0.000000000,-0.314745033,0.000000000,0.000000000,9.800000000,0.971409332,0.000000000,0.000000000,-0.237410844
2.766666224,0.000000000,0.000000000,-0.314745033,0.000000000,0.000000000,9.800000000,0.971253449,0.000000000,0.000000000,-0.238047764
2.770832890,0.000000000,0.000000000,-0.299765503,0.000000000,0.000000000,9.800000000,0.971104596,0.000000000,0.000000000,-0.238654276
2.779166222,0.000000000,0.000000000,-0.299765503,0.000000000,-0.000000000,9.800000000,0.970805754,0.000000000,0.000000000,-0.239867022
2.783332888,0.000000000,0.000000000,-0.284670407,-0.000000000,0.000000000,9.800000000,0.970663327,0.000000000,0.000000000,-0.240442729
2.787499554,0.000000000,0.000000000,-0.284670407,-0.000000000,0.000000000,9.800000000,0.970520559,0.000000000,0.000000000,-0.241018351
2.791666220,0.000000000,0.000000000,-0.284670407,-0.000000000,0.000000000,9.800000000,0.970377449,0.000000000,0.000000000,-0.241593889
2.795832886,0.000000000,0.000000000,-0.269465566,0.000000000,0.000000000,9.800000000,0.970241668,0.000000000,0.000000000,-0.242138607
2.804166218,0.000000000,0.000000000,-0.269465566,0.000000000,0.000000000,9.800000000,0.969969190,0.000000000,0.000000000,-0.243227816
2.808332884,0.000000000,0.000000000,-0.254156841,0.000000000,0.000000000,9.800000000,0.969840267,0.000000000,0.000000000,-0.243741374
2.812499550,0.000000000,0.000000000,-0.254156841,0.000000000,0.000000000,9.800000000,0.969711071,0.000000000,0.000000000,-0.244254864
2.816666216,0.000000000,0.000000000,-0.254156841,0.000000000,0.000000000,9.800000000,0.969581604,0.000000000,0.000000000,-0.244768285
2.820832882,0.000000000,0.000000000,-0.238750134,0.000000000,-0.000000000,9.800000000,0.969459737,0.000000000,0.000000000,-0.245250521
2.829166214,0.000000000,0.000000000,-0.238750134,0.000000000,-0.000000000,9.800000000,0.969215284,0.000000000,0.000000000,-0.246214810
2.833332880,0.000000000,0.000000000,-0.223251384,0.000000000,0.000000000,9.800000000,0.969100663,0.000000000,0.000000000,-0.246665572
2.837499546,0.000000000,0.000000000,-0.223251384,0.000000000,0.000000000,9.800000000,0.968985832,0.000000000,0.000000000,-0.247116281
2.841666212,0.000000000,0.000000000,-0.223251384,0.000000000,0.000000000,9.800000000,0.968870792,0.000000000,0.000000000,-0.247566937
2.845832878,0.000000000,0.000000000,-0.207666566,0.000000000,-0.000000000,9.800000000,0.968763594,0.000000000,0.000000000,-0.247986084
2.854166210,0.000000000,0.000000000,-0.207666566,-0.000000000,-0.000000000,9.800000000,0.968548655,0.000000000,0.000000000,-0.248824241
2.858332876,0.000000000,0.000000000,-0.192001689,0.000000000,0.000000000,9.800000000,0.968449047,0.000000000,0.000000000,-0.249211644
2.862499542,0.000000000,0.000000000,-0.192001689,0.000000000,0.000000000,9.800000000,0.968349284,0.000000000,0.000000000,-0.249599007
2.866666208,0.000000000,0.000000000,-0.192001689,0.000000000,0.000000000,9.800000000,0.968249366,0.000000000,0.000000000,-0.249986330
2.870832874,0.000000000,0.000000000,-0.176262791,0.000000000,0.000000000,9.800000000,0.968157502,0.000000000,0.000000000,-0.250341868
2.879166206,0.000000000,0.000000000,-0.176262791,0.000000000,0.000000000,9.800000000,0.967973383,0.000000000,0.000000000,-0.251052842
2.883332872,0.000000000,0.000000000,-0.160455941,0.000000000,0.000000000,9.800000000,0.967889406,0.000000000,0.000000000,-0.251376406
2.887499538,0.000000000,0.000000000,-0.160455941,0.000000000,0.000000000,9.800000000,0.967805321,0.000000000,0.000000000,-0.251699941
2.891666204,0.000000000,0.000000000,-0.160455941,0.000000000,0.000000000,9.800000000,0.967721128,0.000000000,0.000000000,-0.252023448
2.895832870,0.000000000,0.000000000,-0.144587232,0.000000000,0.000000000,9.800000000,0.967645169,0.000000000,0.000000000,-0.252314936
2.904166202,0.000000000,0.000000000,-0.144587232,0.000000000,0.000000000,9.800000000,0.967492987,0.000000000,0.000000000,-0.252897845
2.908332868,0.000000000,0.000000000,-0.128662782,0.000000000,0.000000000,9.800000000,0.967425164,0.000000000,0.000000000,-0.253157170
2.912499534,0.000000000,0.000000000,-0.128662782,-0.000000000,0.000000000,9.800000000,0.967357271,0.000000000,0.000000000,-0.253416477
2.916666200,0.000000000,0.000000000,-0.128662782,-0.000000000,0.000000000,9.800000000,0.967289308,0.000000000,0.000000000,-0.253675765
2.920832866,0.000000000,0.000000000,-0.112688731,0.000000000,0.000000000,9.800000000,0.967229727,0.000000000,0.000000000,-0.253902847
2.929166198,0.000000000,0.000000000,-0.112688731,0.000000000,0.000000000,9.800000000,0.967110403,0.000000000,0.000000000,-0.254356969
2.933332864,0.000000000,0.000000000,-0.096671235,0.000000000,-0.000000000,9.800000000,0.967059157,0.000000000,0.000000000,-0.254551738
2.937499530,0.000000000,0.000000000,-0.096671235,0.000000000,-0.000000000,9.800000000,0.967007871,0.000000000,0.000000000,-0.254746497
2.941666196,0.000000000,0.000000000,-0.096671235,0.000000000,0.000000000,9.800000000,0.966956546,0.000000000,0.000000000,-0.254941246
2.945832862,0.000000000,0.000000000,-0.080616471,-0.000000000,0.000000000,9.800000000,0.966913714,0.000000000,0.000000000,-0.255103643
2.954166194,0.000000000,0.000000000,-0.080616471,-0.000000000,-0.000000000,9.800000000,0.966827970,0.000000000,0.000000000,-0.255428417
2.958332860,0.000000000,0.000000000,-0.064530628,-0.000000000,0.000000000,9.800000000,0.966793622,0.000000000,0.000000000,-0.255558394
2.962499526,0.000000000,0.000000000,-0.064530628,-0.000000000,0.000000000,9.800000000,0.966759256,0.000000000,0.000000000,-0.255688366
2.966666192,0.000000000,0.000000000,-0.064530628,-0.000000000,0.000000000,9.800000000,0.966724873,0.000000000,0.000000000,-0.255818334
2.970832858,0.000000000,0.000000000,-0.048419907,0.000000000,0.000000000,9.800000000,0.966699062,0.000000000,0.000000000,-0.255915851
2.979166190,0.000000000,0.000000000,-0.048419907,0.000000000,0.000000000,9.800000000,0.966647412,0.000000000,0.000000000,-0.256110877
2.983332856,0.000000000,0.000000000,-0.032290519,0.000000000,0.000000000,9.800000000,0.966630181,0.000000000,0.000000000,-0.256175904
2.987499522,0.000000000,0.000000000,-0.032290519,0.000000000,0.000000000,9.800000000,0.966612945,0.000000000,0.000000000,-0.256240931
2.991666188,0.000000000,0.000000000,-0.032290519,0.000000000,0.000000000,9.800000000,0.966595705,0.000000000,0.000000000,-0.256305956
2.995832854,0.000000000,0.000000000,-0.016148682,0.000000000,0.000000000,9.800000000,0.966587082,0.000000000,0.000000000,-0.256338475
3.004166186,0.000000000,0.000000000,-0.016148682,0.000000000,0.000000000,9.800000000,0.966569831,0.000000000,0.000000000,-0.256403512
3.008332852,0.000000000,0.000000000,-0.000000620,0.000000000,-0.000000000,9.800000000,0.966569831,0.000000000,0.000000000,-0.256403514
3.012499518,0.000000000,0.000000000,-0.000000620,0.000000000,0.000000000,9.800000000,0.966569831,0.000000000,0.000000000,-0.256403515
3.016666184,0.000000000,0.000000000,-0.000000620,0.000000000,0.000000000,9.800000000,0.966569830,0.000000000,0.000000000,-0.256403516
3.020832850,0.000000000,0.000000000,0.016147442,-0.000000000,0.000000000,9.800000000,0.966578455,0.000000000,0.000000000,-0.256371000
3.029166182,0.000000000,0.000000000,0.016147442,0.000000000,0.000000000,9.800000000,0.966595702,0.000000000,0.000000000,-0.256305967
3.033332848,0.000000000,0.000000000,0.032289279,-0.000000000,0.000000000,9.800000000,0.966612941,0.000000000,0.000000000,-0.256240944
3.037499514,0.000000000,0.000000000,0.032289279,-0.000000000,0.000000000,9.800000000,0.966630176,0.000000000,0.000000000,-0.256175920
3.041666180,0.000000000,0.000000000,0.032289279,-0.000000000,0.000000000,9.800000000,0.966647407,0.000000000,0.000000000,-0.256110895
3.045832846,0.000000000,0.000000000,0.048418668,0.000000000,-0.000000000,9.800000000,0.966673236,0.000000000,0.000000000,-0.256013386
3.054166178,0.000000000,0.000000000,0.048418668,-0.000000000,-0.000000000,9.800000000,0.966724866,0.000000000,0.000000000,-0.255818360
3.058332844,0.000000000,0.000000000,0.064529391,0.000000000,0.000000000,9.800000000,0.966759249,0.000000000,0.000000000,-0.255688395
3.062499510,0.000000000,0.000000000,0.064529391,0.000000000,0.000000000,9.800000000,0.966793614,0.000000000,0.000000000,-0.255558425
3.066666176,0.000000000,0.000000000,0.064529391,0.000000000,0.000000000,9.800000000,0.966827961,0.000000000,0.000000000,-0.255428451
3.070832842,0.000000000,0.000000000,0.080615237,0.000000000,-0.000000000,9.800000000,0.966870846,0.000000000,0.000000000,-0.255266070
3.079166174,0.000000000,0.000000000,0.080615237,0.000000000,0.000000000,9.800000000,0.966956535,0.000000000,0.000000000,-0.254941287
3.083332840,0.000000000,0.000000000,0.096670003,0.000000000,0.000000000,9.800000000,0.967007859,0.000000000,0.000000000,-0.254746541
3.087499506,0.000000000,0.000000000,0.096670003,0.000000000,0.000000000,9.800000000,0.967059145,0.000000000,0.000000000,-0.254551784
3.091666172,0.000000000,0.000000000,0.096670003,0.000000000,0.000000000,9.800000000,0.967110391,0.000000000,0.000000000,-0.254357017
3.095832838,0.000000000,0.000000000,0.112687502,0.000000000,0.000000000,9.800000000,0.967170078,0.000000000,0.000000000,-0.254129966
3.104166170,0.000000000,0.000000000,0.112687502,-0.000000000,0.000000000,9.800000000,0.967289294,0.000000000,0.000000000,-0.253675821
3.108332836,0.000000000,0.000000000,0.128661557,-0.000000000,-0.000000000,9.800000000,0.967357255,0.000000000,0.000000000,-0.253416535
3.112499502,0.000000000,0.000000000,0.128661557,0.000000000,0.000000000,9.800000000,0.967425148,0.000000000,0.000000000,-0.253157231
3.116666168,0.000000000,0.000000000,0.128661557,0.000000000,0.000000000,9.800000000,0.967492970,0.000000000,0.000000000,-0.252897909
3.120832834,0.000000000,0.000000000,0.144586011,-0.000000000,0.000000000,9.800000000,0.967569105,0.000000000,0.000000000,-0.252606468
3.129166166,0.000000000,0.000000000,0.144586011,-0.000000000,0.000000000,9.800000000,0.967721110,0.000000000,0.000000000,-0.252023518
3.133332832,0.000000000,0.000000000,0.160454725,-0.000000000,0.000000000,9.800000000,0.967805302,0.000000000,0.000000000,-0.251700014
3.137499498,0.000000000,0.000000000,0.160454725,0.000000000,0.000000000,9.800000000,0.967889387,0.000000000,0.000000000,-0.251376481
3.141666164,0.000000000,0.000000000,0.160454725,-0.000000000,0.000000000,9.800000000,0.967973363,0.000000000,0.000000000,-0.251052921
3.145832830,0.000000000,0.000000000,0.176261580,-0.000000000,-0.000000000,9.800000000,0.968065487,0.000000000,0.000000000,-0.250697453
3.154166162,0.000000000,0.000000000,0.176261580,-0.000000000,-0.000000000,9.800000000,0.968249344,0.000000000,0.000000000,-0.249986415
3.158332828,0.000000000,0.000000000,0.192000483,-0.000000000,0.000000000,9.800000000,0.968349261,0.000000000,0.000000000,-0.249599095
3.162499494,0.000000000,0.000000000,0.192000483,0.000000000,0.000000000,9.800000000,0.968449024,0.000000000,0.000000000,-0.249211734
3.166666160,0.000000000,0.000000000,0.192000483,-0.000000000,0.000000000,9.800000000,0.968548631,0.000000000,0.000000000,-0.248824334
3.170832826,0.000000000,0.000000000,0.207665366,0.000000000,0.000000000,9.800000000,0.968656191,0.000000000,0.000000000,-0.248405281
3.179166158,0.000000000,0.000000000,0.207665366,0.000000000,0.000000000,9.800000000,0.968870767,0.000000000,0.000000000,-0.247567037
3.183332824,0.000000000,0.000000000,0.223250190,-0.000000000,0.000000000,9.800000000,0.968985806,0.000000000,0.000000000,-0.247116384
3.187499490,0.000000000,0.000000000,0.223250190,-0.000000000,0.000000000,9.800000000,0.969100636,0.000000000,0.000000000,-0.246665677
3.191666156,0.000000000,0.000000000,0.223250190,0.000000000,0.000000000,9.800000000,0.969215257,0.000000000,0.000000000,-0.246214918
3.195832822,0.000000000,0.000000000,0.223250190,0.000000000,0.000000000,9.800000000,0.969329668,0.000000000,0.000000000,-0.245764105
3.204166154,0.000000000,0.000000000,0.238748947,0.000000000,0.000000000,9.800000000,0.969573671,0.000000000,0.000000000,-0.244799706
3.208332820,0.000000000,0.000000000,0.254155662,0.000000000,-0.000000000,9.800000000,0.969703154,0.000000000,0.000000000,-0.244286292
3.212499486,0.000000000,0.000000000,0.254155662,0.000000000,0.000000000,9.800000000,0.969832366,0.000000000,0.000000000,-0.243772808
3.216666152,0.000000000,0.000000000,0.254155662,0.000000000,-0.000000000,9.800000000,0.969961305,0.000000000,0.000000000,-0.243259257
3.220832818,0.000000000,0.000000000,0.269464394,0.000000000,0.000000000,9.800000000,0.970097714,0.000000000,0.000000000,-0.242714698
3.229166150,0.000000000,0.000000000,0.269464394,0.000000000,0.000000000,9.800000000,0.970369615,0.000000000,0.000000000,-0.241625350
3.233332816,0.000000000,0.000000000,0.284669244,0.000000000,0.000000000,9.800000000,0.970512743,0.000000000,0.000000000,-0.241049820
3.237499482,0.000000000,0.000000000,0.284669244,0.000000000,0.000000000,9.800000000,0.970655530,0.000000000,0.000000000,-0.240474204
3.241666148,0.000000000,0.000000000,0.284669244,0.000000000,0.000000000,9.800000000,0.970797975,0.000000000,0.000000000,-0.239898504
3.245832814,0.000000000,0.000000000,0.299764348,0.000000000,0.000000000,9.800000000,0.970947604,0.000000000,0.000000000,-0.239292185
3.254166146,0.000000000,0.000000000,0.299764348,0.000000000,0.000000000,9.800000000,0.971245727,0.000000000,0.000000000,-0.238079268
3.258332812,0.000000000,0.000000000,0.314743887,-0.000000000,-0.000000000,9.800000000,0.971401631,0.000000000,0.000000000,-0.237442355
3.262499478,0.000000000,0.000000000,0.314743887,-0.000000000,-0.000000000,9.800000000,0.971557117,0.000000000,0.000000000,-0.236805340
3.266666144,0.000000000,0.000000000,0.314743887,-0.000000000,-0.000000000,9.800000000,0.971712185,0.000000000,0.000000000,-0.236168224
3.270832810,0.000000000,0.000000000,0.329602086,0.000000000,0.000000000,9.800000000,0.971874126,0.000000000,0.000000000,-0.235500921
3.279166142,0.000000000,0.000000000,0.329602086,-0.000000000,0.000000000,9.800000000,0.972196632,0.000000000,0.000000000,-0.234165984
3.283332808,0.000000000,0.000000000,0.344333218,0.000000000,-0.000000000,9.800000000,0.972364364,0.000000000,0.000000000,-0.233468509
3.287499474,0.000000000,0.000000000,0.344333218,-0.000000000,-0.000000000,9.800000000,0.972531595,0.000000000,0.000000000,-0.232770912
3.291666140,0.000000000,0.000000000,0.344333218,0.000000000,-0.000000000,9.800000000,0.972698325,0.000000000,0.000000000,-0.232073197
3.295832806,0.000000000,0.000000000,0.358931602,0.000000000,0.000000000,9.800000000,0.972871591,0.000000000,0.000000000,-0.231345773
3.304166138,0.000000000,0.000000000,0.358931602,0.000000000,-0.000000000,9.800000000,0.973216492,0.000000000,0.000000000,-0.229890539
3.308332804,0.000000000,0.000000000,0.373391612,-0.000000000,-0.000000000,9.800000000,0.973395029,0.000000000,0.000000000,-0.229133405
3.312499470,0.000000000,0.000000000,0.373391612,0.000000000,-0.000000000,9.800000000,0.973572977,0.000000000,0.000000000,-0.228376133
3.316666136,0.000000000,0.000000000,0.373391612,-0.000000000,-0.000000000,9.800000000,0.973750336,0.000000000,0.000000000,-0.227618722
3.320832802,0.000000000,0.000000000,0.387707672,0.000000000,-0.000000000,9.800000000,0.973933872,0.000000000,0.000000000,-0.226832126
3.329166134,0.000000000,0.000000000,0.387707672,-0.000000000,-0.000000000,9.800000000,0.974299036,0.000000000,0.000000000,-0.225258491
3.333332800,0.000000000,0.000000000,0.401874263,0.000000000,0.000000000,9.800000000,0.974487290,0.000000000,0.000000000,-0.224442692
3.337499466,0.000000000,0.000000000,0.401874263,0.000000000,0.000000000,9.800000000,0.974674860,0.000000000,0.000000000,-0.223626736
3.341666132,0.000000000,0.000000000,0.401874263,-0.000000000,0.000000000,9.800000000,0.974861747,0.000000000,0.000000000,-0.222810623
3.345832798,0.000000000,0.000000000,0.415885925,-0.000000000,-0.000000000,9.800000000,0.975054431,0.000000000,0.000000000,-0.221965891
3.354166130,0.000000000,0.000000000,0.415885925,-0.000000000,-0.000000000,9.800000000,0.975437602,0.000000000,0.000000000,-0.220275928
3.358332796,0.000000000,0.000000000,0.429737254,0.000000000,0.000000000,9.800000000,0.975634421,0.000000000,0.000000000,-0.219402544
3.362499462,0.000000000,0.000000000,0.429737254,0.000000000,0.000000000,9.800000000,0.975830458,0.000000000,0.000000000,-0.218528985
3.366666128,0.000000000,0.000000000,0.429737254,0.000000000,0.000000000,9.800000000,0.976025713,0.000000000,0.000000000,-0.217655250
3.370832794,0.000000000,0.000000000,0.443422912,0.000000000,-0.000000000,9.800000000,0.976226366,0.000000000,0.000000000,-0.216753507
3.379166126,0.000000000,0.000000000,0.443422912,-0.000000000,-0.000000000,9.800000000,0.976625172,0.000000000,0.000000000,-0.214949467
3.383332792,0.000000000,0.000000000,0.456937621,-0.000000000,0.000000000,9.800000000,0.976829351,0.000000000,0.000000000,-0.214019669
3.387499458,0.000000000,0.000000000,0.456937621,0.000000000,0.000000000,9.800000000,0.977032645,0.000000000,0.000000000,-0.213089676
3.391666124,0.000000000,0.000000000,0.456937621,-0.000000000,0.000000000,9.800000000,0.977235054,0.000000000,0.000000000,-0.212159490
3.395832790,0.000000000,0.000000000,0.470276173,-0.000000000,-0.000000000,9.800000000,0.977442446,0.000000000,0.000000000,-0.211201950
3.404166122,0.000000000,0.000000000,0.470276173,-0.000000000,0.000000000,9.800000000,0.977854417,0.000000000,0.000000000,-0.209286264
3.408332788,0.000000000,0.000000000,0.483433424,0.000000000,0.000000000,9.800000000,0.978064704,0.000000000,0.000000000,-0.208301309
3.412499454,0.000000000,0.000000000,0.483433424,0.000000000,0.000000000,9.800000000,0.978273999,0.000000000,0.000000000,-0.207316143
3.416666120,0.000000000,0.000000000,0.483433424,0.000000000,0.000000000,9.800000000,0.978482302,0.000000000,0.000000000,-0.206330766
3.420832786,0.000000000,0.000000000,0.496404303,0.000000000,-0.000000000,9.800000000,0.978695161,0.000000000,0.000000000,-0.205318734
3.429166118,0.000000000,0.000000000,0.496404303,0.000000000,0.000000000,9.800000000,0.979117738,0.000000000,0.000000000,-0.203294011
3.433332784,0.000000000,0.000000000,0.509183808,0.000000000,0.000000000,9.800000000,0.979332841,0.000000000,0.000000000,-0.202255249
3.437499450,0.000000000,0.000000000,0.509183808,0.000000000,0.000000000,9.800000000,0.979546843,0.000000000,0.000000000,-0.201216260
3.441666116,0.000000000,0.000000000,0.509183808,0.000000000,0.000000000,9.800000000,0.979759741,0.000000000,0.000000000,-0.200177044
3.445832782,0.000000000,0.000000000,0.521767013,-0.000000000,0.000000000,9.800000000,0.979976758,0.000000000,0.000000000,-0.199111913
3.454166114,0.000000000,0.000000000,0.521767013,-0.000000000,-0.000000000,9.800000000,0.980407317,0.000000000,0.000000000,-0.196980946
3.458332780,0.000000000,0.000000000,0.534149067,0.000000000,-0.000000000,9.800000000,0.980625912,0.000000000,0.000000000,-0.195889817
3.462499446,0.000000000,0.000000000,0.534149067,0.000000000,-0.000000000,9.800000000,0.980843293,0.000000000,0.000000000,-0.194798446
3.466666112,0.000000000,0.000000000,0.534149067,-0.000000000,-0.000000000,9.800000000,0.981059459,0.000000000,0.000000000,-0.193706833
3.470832778,0.000000000,0.000000000,0.546325197,0.000000000,0.000000000,9.800000000,0.981279297,0.000000000,0.000000000,-0.192590088
3.479166110,0.000000000,0.000000000,0.546325197,0.000000000,0.000000000,9.800000000,0.981715157,0.000000000,0.000000000,-0.190355851
3.483332776,0.000000000,0.000000000,0.558290708,-0.000000000,-0.000000000,9.800000000,0.981935897,0.000000000,0.000000000,-0.189213884
3.487499442,0.000000000,0.000000000,0.558290708,-0.000000000,0.000000000,9.800000000,0.982155309,0.000000000,0.000000000,-0.188071662
3.491666108,0.000000000,0.000000000,0.558290708,-0.000000000,0.000000000,9.800000000,0.982373391,0.000000000,0.000000000,-0.186929184
3.495832774,0.000000000,0.000000000,0.570040987,-0.000000000,0.000000000,9.800000000,0.982594693,0.000000000,0.000000000,-0.185762401
3.504166106,0.000000000,0.000000000,0.570040987,-0.000000000,0.000000000,9.800000000,0.983033138,0.000000000,0.000000000,-0.183428049
3.508332772,0.000000000,0.000000000,0.581571505,-0.000000000,0.000000000,9.800000000,0.983254659,0.000000000,0.000000000,-0.182236865
3.512499438,0.000000000,0.000000000,0.581571505,0.000000000,0.000000000,9.800000000,0.983474737,0.000000000,0.000000000,-0.181045413
3.516666104,0.000000000,0.000000000,0.581571505,0.000000000,0.000000000,9.800000000,0.983693371,0.000000000,0.000000000,-0.179853695
3.520832770,0.000000000,0.000000000,0.592877816,0.000000000,-0.000000000,9.800000000,0.983914769,0.000000000,0.000000000,-0.178638538
3.529166102,0.000000000,0.000000000,0.592877816,-0.000000000,-0.000000000,9.800000000,0.984353061,0.000000000,0.000000000,-0.176207407
3.533332768,0.000000000,0.000000000,0.603955561,0.000000000,0.000000000,9.800000000,0.984573994,0.000000000,0.000000000,-0.174968715
3.537499434,0.000000000,0.000000000,0.603955561,0.000000000,-0.000000000,9.800000000,0.984793367,0.000000000,0.000000000,-0.173729746
3.541666100,0.000000000,0.000000000,0.603955561,0.000000000,0.000000000,9.800000000,0.985011181,0.000000000,0.000000000,-0.172490502
3.545832766,0.000000000,0.000000000,0.614800470,0.000000000,0.000000000,9.800000000,0.985231305,0.000000000,0.000000000,-0.171228725
3.554166098,0.000000000,0.000000000,0.614800470,0.000000000,0.000000000,9.800000000,0.985666703,0.000000000,0.000000000,-0.168704330
3.558332764,0.000000000,0.000000000,0.625408362,0.000000000,-0.000000000,9.800000000,0.985885677,0.000000000,0.000000000,-0.167419929
3.562499430,0.000000000,0.000000000,0.625408362,0.000000000,-0.000000000,9.800000000,0.986102977,0.000000000,0.000000000,-0.166135243
3.566666096,0.000000000,0.000000000,0.625408362,-0.000000000,-0.000000000,9.800000000,0.986318603,0.000000000,0.000000000,-0.164850275
3.570832762,0.000000000,0.000000000,0.635775147,-0.000000000,-0.000000000,9.800000000,0.986536087,0.000000000,0.000000000,-0.163543721
3.579166094,0.000000000,0.000000000,0.635775147,0.000000000,0.000000000,9.800000000,0.986965863,0.000000000,0.000000000,-0.160929755
3.583332760,0.000000000,0.000000000,0.645896829,0.000000000,0.000000000,9.800000000,0.987181519,0.000000000,0.000000000,-0.159601530
3.587499426,0.000000000,0.000000000,0.645896829,0.000000000,-0.000000000,9.800000000,0.987395388,0.000000000,0.000000000,-0.158273017
3.591666092,0.000000000,0.000000000,0.645896829,0.000000000,-0.000000000,9.800000000,0.987607469,0.000000000,0.000000000,-0.156944217
3.595832758,0.000000000,0.000000000,0.655769505,0.000000000,0.000000000,9.800000000,0.987820962,0.000000000,0.000000000,-0.155594815
3.604166090,0.000000000,0.000000000,0.655769505,0.000000000,0.000000000,9.800000000,0.988242417,0.000000000,0.000000000,-0.152895142
3.608332756,0.000000000,0.000000000,0.665389370,0.000000000,0.000000000,9.800000000,0.988453415,0.000000000,0.000000000,-0.151525067
3.612499422,0.000000000,0.000000000,0.665389370,0.000000000,0.000000000,9.800000000,0.988662514,0.000000000,0.000000000,-0.150154700
3.616666088,0.000000000,0.000000000,0.665389370,0.000000000,0.000000000,9.800000000,0.988869712,0.000000000,0.000000000,-0.148784045
3.620832754,0.000000000,0.000000000,0.674752714,-0.000000000,-0.000000000,9.800000000,0.989077886,0.000000000,0.000000000,-0.147393810
3.629166086,0.000000000,0.000000000,0.674752714,0.000000000,0.000000000,9.800000000,0.989488370,0.000000000,0.000000000,-0.144612470
3.633332752,0.000000000,0.000000000,0.683855929,0.000000000,0.000000000,9.800000000,0.989693395,0.000000000,0.000000000,-0.143202600
3.637499418,0.000000000,0.000000000,0.683855929,0.000000000,-0.000000000,9.800000000,0.989896411,0.000000000,0.000000000,-0.141792439
3.641666084,0.000000000,0.000000000,0.683855929,0.000000000,0.000000000,9.800000000,0.990097418,0.000000000,0.000000000,-0.140381990
3.645832750,0.000000000,0.000000000,0.692695504,0.000000000,-0.000000000,9.800000000,0.990298974,0.000000000,0.000000000,-0.138953020
3.654166082,0.000000000,0.000000000,0.692695504,0.000000000,0.000000000,9.800000000,0.990695899,0.000000000,0.000000000,-0.136094214
3.658332748,0.000000000,0.000000000,0.701268032,-0.000000000,-0.000000000,9.800000000,0.990893672,0.000000000,0.000000000,-0.134646687
3.662499414,0.000000000,0.000000000,0.701268032,-0.000000000,-0.000000000,9.800000000,0.991089330,0.000000000,0.000000000,-0.133198873
3.666666080,0.000000000,0.000000000,0.701268032,-0.000000000,-0.000000000,9.800000000,0.991282872,0.000000000,0.000000000,-0.131750775
3.670832746,0.000000000,0.000000000,0.709570208,-0.000000000,0.000000000,9.800000000,0.991476553,0.000000000,0.000000000,-0.130285247
3.679166078,0.000000000,0.000000000,0.709570208,-0.000000000,0.000000000,9.800000000,0.991857413,0.000000000,0.000000000,-0.127353340
3.683332744,0.000000000,0.000000000,0.717598831,0.000000000,0.000000000,9.800000000,0.992046697,0.000000000,0.000000000,-0.125870374
3.687499410,0.000000000,0.000000000,0.717598831,-0.000000000,0.000000000,9.800000000,0.992233764,0.000000000,0.000000000,-0.124387126
3.691666076,0.000000000,0.000000000,0.717598831,-0.000000000,-0.000000000,9.800000000,0.992418614,0.000000000,0.000000000,-0.122903601
3.695832742,0.000000000,0.000000000,0.725350807,0.000000000,0.000000000,9.800000000,0.992603206,0.000000000,0.000000000,-0.121403771
3.704166074,0.000000000,0.000000000,0.725350807,0.000000000,0.000000000,9.800000000,0.992965590,0.000000000,0.000000000,-0.118403282
3.708332740,0.000000000,0.000000000,0.732823145,0.000000000,0.000000000,9.800000000,0.993145201,0.000000000,0.000000000,-0.116887169
3.712499406,0.000000000,0.000000000,0.732823145,0.000000000,0.000000000,9.800000000,0.993322497,0.000000000,0.000000000,-0.115370784
3.716666072,0.000000000,0.000000000,0.732823145,0.000000000,0.000000000,9.800000000,0.993497477,0.000000000,0.000000000,-0.113854130
3.720832738,0.000000000,0.000000000,0.740012967,0.000000000,-0.000000000,9.800000000,0.993671825,0.000000000,0.000000000,-0.112322327
3.729166070,0.000000000,0.000000000,0.740012967,0.000000000,0.000000000,9.800000000,0.994013434,0.000000000,0.000000000,-0.109257923
3.733332736,0.000000000,0.000000000,0.746917500,0.000000000,-0.000000000,9.800000000,0.994182244,0.000000000,0.000000000,-0.107711029
3.737499402,0.000000000,0.000000000,0.746917500,0.000000000,-0.000000000,9.800000000,0.994348647,0.000000000,0.000000000,-0.106163875
3.741666068,0.000000000,0.000000000,0.746917500,0.000000000,-0.000000000,9.800000000,0.994512642,0.000000000,0.000000000,-0.104616463
3.745832734,0.000000000,0.000000000,0.753534082,0.000000000,0.000000000,9.800000000,0.994675650,0.000000000,0.000000000,-0.103055086
3.754166066,0.000000000,0.000000000,0.753534082,0.000000000,0.000000000,9.800000000,0.994994312,0.000000000,0.000000000,-0.099931576
3.758332732,0.000000000,0.000000000,0.759860162,0.000000000,0.000000000,9.800000000,0.995151261,0.000000000,0.000000000,-0.098356334
3.762499398,0.000000000,0.000000000,0.759860162,0.000000000,0.000000000,9.800000000,0.995305716,0.000000000,0.000000000,-0.096780845
3.766666064,0.000000000,0.000000000,0.759860162,0.000000000,0.000000000,9.800000000,0.995457677,0.000000000,0.000000000,-0.095205114
3.770832730,0.000000000,0.000000000,0.765893301,-0.000000000,-0.000000000,9.800000000,0.995608320,0.000000000,0.000000000,-0.093616630
3.779166062,0.000000000,0.000000000,0.765893301,-0.000000000,-0.000000000,9.800000000,0.995902001,0.000000000,0.000000000,-0.090438952
3.783332728,0.000000000,0.000000000,0.771631175,0.000000000,0.000000000,9.800000000,0.996046101,0.000000000,0.000000000,-0.088837859
3.787499394,0.000000000,0.000000000,0.771631175,0.000000000,-0.000000000,9.800000000,0.996187626,0.000000000,0.000000000,-0.087236537
3.791666060,0.000000000,0.000000000,0.771631175,0.000000000,0.000000000,9.800000000,0.996326577,0.000000000,0.000000000,-0.085634989
3.795832726,0.000000000,0.000000000,0.777071570,-0.000000000,0.000000000,9.800000000,0.996463906,0.000000000,0.000000000,-0.084021925
3.804166058,0.000000000,0.000000000,0.777071570,-0.000000000,0.000000000,9.800000000,0.996730728,0.000000000,0.000000000,-0.080795142
3.808332724,0.000000000,0.000000000,0.782212389,0.000000000,0.000000000,9.800000000,0.996861069,0.000000000,0.000000000,-0.079170754
3.812499390,0.000000000,0.000000000,0.782212389,0.000000000,0.000000000,9.800000000,0.996988763,0.000000000,0.000000000,-0.077546156
3.816666056,0.000000000,0.000000000,0.782212389,0.000000000,0.000000000,9.800000000,0.997113809,0.000000000,0.000000000,-0.075921352
3.820832722,0.000000000,0.000000000,0.787051650,0.000000000,-0.000000000,9.800000000,0.997236956,0.000000000,0.000000000,-0.074286292
3.829166054,0.000000000,0.000000000,0.787051650,0.000000000,-0.000000000,9.800000000,0.997475207,0.000000000,0.000000000,-0.071015579
3.833332720,0.000000000,0.000000000,0.791587489,0.000000000,-0.000000000,9.800000000,0.997590965,0.000000000,0.000000000,-0.069370506
3.837499386,0.000000000,0.000000000,0.791587489,0.000000000,-0.000000000,9.800000000,0.997704010,0.000000000,0.000000000,-0.067725245
3.841666052,0.000000000,0.000000000,0.791587489,0.000000000,-0.000000000,9.800000000,0.997814341,0.000000000,0.000000000,-0.066079800
3.845832718,0.000000000,0.000000000,0.795818155,-0.000000000,0.000000000,9.800000000,0.997922527,0.000000000,0.000000000,-0.064425379
3.854166050,0.000000000,0.000000000,0.795818155,0.000000000,0.000000000,9.800000000,0.998130669,0.000000000,0.000000000,-0.061116011
3.858332716,0.000000000,0.000000000,0.799742018,0.000000000,0.000000000,9.800000000,0.998231111,0.000000000,0.000000000,-0.059452913
3.862499382,0.000000000,0.000000000,0.799742018,-0.000000000,-0.000000000,9.800000000,0.998328782,0.000000000,0.000000000,-0.057789649
3.866666048,0.000000000,0.000000000,0.799742018,-0.000000000,0.000000000,9.800000000,0.998423681,0.000000000,0.000000000,-0.056126225
3.870832714,0.000000000,0.000000000,0.803357566,-0.000000000,-0.000000000,9.800000000,0.998516219,0.000000000,0.000000000,-0.054455125
3.879166046,0.000000000,0.000000000,0.803357566,-0.000000000,-0.000000000,9.800000000,0.998692903,0.000000000,0.000000000,-0.051112470
3.883332712,0.000000000,0.000000000,0.806663404,0.000000000,0.000000000,9.800000000,0.998777390,0.000000000,0.000000000,-0.049434047
3.887499378,0.000000000,0.000000000,0.806663404,0.000000000,0.000000000,9.800000000,0.998859056,0.000000000,0.000000000,-0.047755484
3.891666044,0.000000000,0.000000000,0.806663404,0.000000000,0.000000000,9.800000000,0.998937901,0.000000000,0.000000000,-0.046076786
3.895832710,0.000000000,0.000000000,0.809658258,0.000000000,-0.000000000,9.800000000,0.999014201,0.000000000,0.000000000,-0.044391725
3.904166042,0.000000000,0.000000000,0.809658258,-0.000000000,-0.000000000,9.800000000,0.999158275,0.000000000,0.000000000,-0.041021229
3.908332708,0.000000000,0.000000000,0.812340973,0.000000000,0.000000000,9.800000000,0.999226268,0.000000000,0.000000000,-0.039330219
3.912499374,0.000000000,0.000000000,0.812340973,-0.000000000,0.000000000,9.800000000,0.999291398,0.000000000,0.000000000,-0.037639096
3.916666040,0.000000000,0.000000000,0.812340973,0.000000000,0.000000000,9.800000000,0.999353667,0.000000000,0.000000000,-0.035947865
3.920832706,0.000000000,0.000000000,0.814710516,0.000000000,-0.000000000,9.800000000,0.999413242,0.000000000,0.000000000,-0.034251598
3.929166038,0.000000000,0.000000000,0.814710516,0.000000000,-0.000000000,9.800000000,0.999523755,0.000000000,0.000000000,-0.030858772
3.933332704,0.000000000,0.000000000,0.816765972,-0.000000000,-0.000000000,9.800000000,0.999574817,0.000000000,0.000000000,-0.029157943
3.937499370,0.000000000,0.000000000,0.816765972,-0.000000000,-0.000000000,9.800000000,0.999622985,0.000000000,0.000000000,-0.027457030
3.941666036,0.000000000,0.000000000,0.816765972,-0.000000000,-0.000000000,9.800000000,0.999668258,0.000000000,0.000000000,-0.025756037
3.945832702,0.000000000,0.000000000,0.818506550,0.000000000,0.000000000,9.800000000,0.999710725,0.000000000,0.000000000,-0.024051344
3.954166034,0.000000000,0.000000000,0.818506550,0.000000000,0.000000000,9.800000000,0.999786936,0.000000000,0.000000000,-0.020641754
3.958332700,0.000000000,0.000000000,0.819931578,-0.000000000,-0.000000000,9.800000000,0.999820738,0.000000000,0.000000000,-0.018933898
3.962499366,0.000000000,0.000000000,0.819931578,-0.000000000,-0.000000000,9.800000000,0.999851622,0.000000000,0.000000000,-0.017225987
3.966666032,0.000000000,0.000000000,0.819931578,-0.000000000,-0.000000000,9.800000000,0.999879588,0.000000000,0.000000000,-0.015518026
3.970832698,0.000000000,0.000000000,0.821040507,0.000000000,0.000000000,9.800000000,0.999904669,0.000000000,0.000000000,-0.013807709
3.979166030,0.000000000,0.000000000,0.821040507,0.000000000,-0.000000000,9.800000000,0.999946054,0.000000000,0.000000000,-0.010386960
3.983332696,0.000000000,0.000000000,0.821832909,0.000000000,0.000000000,9.800000000,0.999962372,0.000000000,0.000000000,-0.008674886
3.987499362,0.000000000,0.000000000,0.821832909,0.000000000,0.000000000,9.800000000,0.999975760,0.000000000,0.000000000,-0.006962787
3.991666028,0.000000000,0.000000000,0.821832909,0.000000000,0.000000000,9.800000000,0.999986215,0.000000000,0.000000000,-0.005250668
3.995832694,0.000000000,0.000000000,0.822308479,-0.000000000,-0.000000000,9.800000000,0.999993743,0.000000000,0.000000000,-0.003537542
4.004166026,0.000000000,0.000000000,0.822308479,-0.000000000,-0.000000000,9.800000000,0.999999994,0.000000000,0.000000000,-0.000111265
4.008332692,0.000000000,0.000000000,0.822467033,0.000000000,-0.000000000,9.800000000,0.999998716,0.000000000,0.000000000,0.001602207
4.012499358,0.000000000,0.000000000,0.822467033,0.000000000,-0.000000000,9.800000000,0.999994503,0.000000000,0.000000000,0.003315675
4.016666024,0.000000000,0.000000000,0.822467033,0.000000000,-0.000000000,9.800000000,0.999987354,0.000000000,0.000000000,0.005029132
4.020832690,0.000000000,0.000000000,0.822308511,0.000000000,-0.000000000,9.800000000,0.999977271,0.000000000,0.000000000,0.006742245
4.029166022,0.000000000,0.000000000,0.822308511,0.000000000,-0.000000000,9.800000000,0.999948300,0.000000000,0.000000000,0.010168406
4.033332688,0.000000000,0.000000000,0.821832974,0.000000000,-0.000000000,9.800000000,0.999929425,0.000000000,0.000000000,0.011880453
4.037499354,0.000000000,0.000000000,0.821832974,-0.000000000,-0.000000000,9.800000000,0.999907618,0.000000000,0.000000000,0.013592466
4.041666020,0.000000000,0.000000000,0.821832974,-0.000000000,-0.000000000,9.800000000,0.999882880,0.000000000,0.000000000,0.015304439
4.045832686,0.000000000,0.000000000,0.821040604,0.000000000,0.000000000,9.800000000,0.999855239,0.000000000,0.000000000,0.017014716
4.054166018,0.000000000,0.000000000,0.821040604,0.000000000,0.000000000,9.800000000,0.999791181,0.000000000,0.000000000,0.020435117
4.058332684,0.000000000,0.000000000,0.819931708,-0.000000000,0.000000000,9.800000000,0.999754815,0.000000000,0.000000000,0.022142920
4.062499350,0.000000000,0.000000000,0.819931708,-0.000000000,0.000000000,9.800000000,0.999715533,0.000000000,0.000000000,0.023850659
4.066666016,0.000000000,0.000000000,0.819931708,0.000000000,0.000000000,9.800000000,0.999673333,0.000000000,0.000000000,0.025558328
4.070832682,0.000000000,0.000000000,0.818506712,0.000000000,-0.000000000,9.800000000,0.999628297,0.000000000,0.000000000,0.027262955
4.079166014,0.000000000,0.000000000,0.818506712,0.000000000,0.000000000,9.800000000,0.999529505,0.000000000,0.000000000,0.030671966
4.083332680,0.000000000,0.000000000,0.816766167,-0.000000000,0.000000000,9.800000000,0.999475866,0.000000000,0.000000000,0.032372717
4.087499346,0.000000000,0.000000000,0.816766167,-0.000000000,-0.000000000,9.800000000,0.999419334,0.000000000,0.000000000,0.034073373
4.091666012,0.000000000,0.000000000,0.816766167,-0.000000000,-0.000000000,9.800000000,0.999359908,0.000000000,0.000000000,0.035773931
4.095832678,0.000000000,0.000000000,0.814710743,-0.000000000,-0.000000000,9.800000000,0.999297749,0.000000000,0.000000000,0.037470106
4.104166010,0.000000000,0.000000000,0.814710743,-0.000000000,-0.000000000,9.800000000,0.999164795,0.000000000,0.000000000,0.040862127
4.108332676,0.000000000,0.000000000,0.812341232,0.000000000,0.000000000,9.800000000,0.999094210,0.000000000,0.000000000,0.042553031
4.112499342,0.000000000,0.000000000,0.812341232,0.000000000,0.000000000,9.800000000,0.999020763,0.000000000,0.000000000,0.044243814
4.116666008,0.000000000,0.000000000,0.812341232,-0.000000000,0.000000000,9.800000000,0.998944455,0.000000000,0.000000000,0.045934470
4.120832674,0.000000000,0.000000000,0.809658549,-0.000000000,0.000000000,9.800000000,0.998865552,0.000000000,0.000000000,0.047619412
4.129166006,0.000000000,0.000000000,0.809658549,0.000000000,0.000000000,9.800000000,0.998699221,0.000000000,0.000000000,0.050988884
4.133332672,0.000000000,0.000000000,0.806663726,0.000000000,0.000000000,9.800000000,0.998612121,0.000000000,0.000000000,0.052667174
4.137499338,0.000000000,0.000000000,0.806663726,0.000000000,0.000000000,9.800000000,0.998522201,0.000000000,0.000000000,0.054345316
4.141666004,0.000000000,0.000000000,0.806663726,0.000000000,0.000000000,9.800000000,0.998429461,0.000000000,0.000000000,0.056023304
4.145832670,0.000000000,0.000000000,0.803357920,0.000000000,0.000000000,9.800000000,0.998334299,0.000000000,0.000000000,0.057694258
4.154166002,0.000000000,0.000000000,0.803357920,0.000000000,0.000000000,9.800000000,0.998135585,0.000000000,0.000000000,0.061035677
4.158332668,0.000000000,0.000000000,0.799742404,-0.000000000,0.000000000,9.800000000,0.998032506,0.000000000,0.000000000,0.062698615
4.162499334,0.000000000,0.000000000,0.799742404,-0.000000000,0.000000000,9.800000000,0.997926657,0.000000000,0.000000000,0.064361379
4.166666000,0.000000000,0.000000000,0.799742404,-0.000000000,0.000000000,9.800000000,0.997818038,0.000000000,0.000000000,0.066023964
4.170832666,0.000000000,0.000000000,0.795818572,0.000000000,-0.000000000,9.800000000,0.997707201,0.000000000,0.000000000,0.067678210
4.179165998,0.000000000,0.000000000,0.795818572,0.000000000,-0.000000000,9.800000000,0.997477302,0.000000000,0.000000000,0.070986139
4.183332664,0.000000000,0.000000000,0.791587937,0.000000000,0.000000000,9.800000000,0.997358879,0.000000000,0.000000000,0.072631023
4.187499330,0.000000000,0.000000000,0.791587937,0.000000000,0.000000000,9.800000000,0.997237744,0.000000000,0.000000000,0.074275709
4.191665996,0.000000000,0.000000000,0.791587937,0.000000000,0.000000000,9.800000000,0.997113897,0.000000000,0.000000000,0.075920193
4.195832662,0.000000000,0.000000000,0.787052130,-0.000000000,-0.000000000,9.800000000,0.996988071,0.000000000,0.000000000,0.077555050
4.204165994,0.000000000,0.000000000,0.787052130,-0.000000000,0.000000000,9.800000000,0.996728378,0.000000000,0.000000000,0.080824133
4.208332660,0.000000000,0.000000000,0.782212900,0.000000000,-0.000000000,9.800000000,0.996595343,0.000000000,0.000000000,0.082448304
4.212499326,0.000000000,0.000000000,0.782212900,0.000000000,-0.000000000,9.800000000,0.996459661,0.000000000,0.000000000,0.084072255
4.216665992,0.000000000,0.000000000,0.782212900,-0.000000000,0.000000000,9.800000000,0.996321333,0.000000000,0.000000000,0.085695983
4.220832658,0.000000000,0.000000000,0.777072111,0.000000000,0.000000000,9.800000000,0.996181294,0.000000000,0.000000000,0.087308815
4.229165990,0.000000000,0.000000000,0.777072111,0.000000000,0.000000000,9.800000000,0.995893385,0.000000000,0.000000000,0.090533787
4.233332656,0.000000000,0.000000000,0.771631747,0.000000000,0.000000000,9.800000000,0.995746559,0.000000000,0.000000000,0.092134634
4.237499322,0.000000000,0.000000000,0.771631747,0.000000000,0.000000000,9.800000000,0.995597160,0.000000000,0.000000000,0.093735242
4.241665988,0.000000000,0.000000000,0.771631747,-0.000000000,-0.000000000,9.800000000,0.995445188,0.000000000,0.000000000,0.095335609
4.245832654,0.000000000,0.000000000,0.765893904,0.000000000,0.000000000,9.800000000,0.995291802,0.000000000,0.000000000,0.096923831
4.254165986,0.000000000,0.000000000,0.765893904,0.000000000,-0.000000000,9.800000000,0.994977429,0.000000000,0.000000000,0.100099531
4.258332652,0.000000000,0.000000000,0.759860795,-0.000000000,-0.000000000,9.800000000,0.994817720,0.000000000,0.000000000,0.101674497
4.262499318,0.000000000,0.000000000,0.759860795,0.000000000,-0.000000000,9.800000000,0.994655519,0.000000000,0.000000000,0.103249208
4.266665984,0.000000000,0.000000000,0.759860795,-0.000000000,-0.000000000,9.800000000,0.994490825,0.000000000,0.000000000,0.104823661
4.270832650,0.000000000,0.000000000,0.753534744,0.000000000,-0.000000000,9.800000000,0.994325040,0.000000000,0.000000000,0.106384746
4.279165982,0.000000000,0.000000000,0.753534744,0.000000000,-0.000000000,9.800000000,0.993986121,0.000000000,0.000000000,0.109506127
4.283332648,0.000000000,0.000000000,0.746918192,0.000000000,-0.000000000,9.800000000,0.993814517,0.000000000,0.000000000,0.111052715
4.287499314,0.000000000,0.000000000,0.746918192,0.000000000,-0.000000000,9.800000000,0.993640507,0.000000000,0.000000000,0.112599034
4.291665980,0.000000000,0.000000000,0.746918192,-0.000000000,-0.000000000,9.800000000,0.993464091,0.000000000,0.000000000,0.114145080
4.295832646,0.000000000,0.000000000,0.740013689,-0.000000000,0.000000000,9.800000000,0.993286934,0.000000000,0.000000000,0.115676563
4.304165978,0.000000000,0.000000000,0.740013689,-0.000000000,0.000000000,9.800000000,0.992925537,0.000000000,0.000000000,0.118738699
4.308332644,0.000000000,0.000000000,0.732823896,0.000000000,-0.000000000,9.800000000,0.992743099,0.000000000,0.000000000,0.120254475
4.312499310,0.000000000,0.000000000,0.732823896,0.000000000,0.000000000,9.800000000,0.992558348,0.000000000,0.000000000,0.121769971
4.316665976,0.000000000,0.000000000,0.732823896,0.000000000,-0.000000000,9.800000000,0.992371283,0.000000000,0.000000000,0.123285184
4.320832642,0.000000000,0.000000000,0.725351586,-0.000000000,0.000000000,9.800000000,0.992183848,0.000000000,0.000000000,0.124784663
4.329165974,0.000000000,0.000000000,0.725351586,-0.000000000,0.000000000,9.800000000,0.991802180,0.000000000,0.000000000,0.127782764
4.333332640,0.000000000,0.000000000,0.717599639,0.000000000,0.000000000,9.800000000,0.991610037,0.000000000,0.000000000,0.129265364
4.337499306,0.000000000,0.000000000,0.717599639,0.000000000,0.000000000,9.800000000,0.991415677,0.000000000,0.000000000,0.130747675
4.341665972,0.000000000,0.000000000,0.717599639,0.000000000,0.000000000,9.800000000,0.991219102,0.000000000,0.000000000,0.132229694
4.345832638,0.000000000,0.000000000,0.709571044,-0.000000000,0.000000000,9.800000000,0.991022547,0.000000000,0.000000000,0.133694841
4.354165970,0.000000000,0.000000000,0.709571044,-0.000000000,0.000000000,9.800000000,0.990622942,0.000000000,0.000000000,0.136624256
4.358332636,0.000000000,0.000000000,0.701268896,0.000000000,-0.000000000,9.800000000,0.990422280,0.000000000,0.000000000,0.138071386
4.362499302,0.000000000,0.000000000,0.701268896,0.000000000,-0.000000000,9.800000000,0.990219504,0.000000000,0.000000000,0.139518222
4.366665968,0.000000000,0.000000000,0.701268896,0.000000000,-0.000000000,9.800000000,0.990014614,0.000000000,0.000000000,0.140964760
4.370832634,0.000000000,0.000000000,0.692696396,-0.000000000,0.000000000,9.800000000,0.989810155,0.000000000,0.000000000,0.142393320
4.379165966,0.000000000,0.000000000,0.692696396,-0.000000000,0.000000000,9.800000000,0.989395052,0.000000000,0.000000000,0.145249547
4.383332632,0.000000000,0.000000000,0.683856848,0.000000000,0.000000000,9.800000000,0.989187111,0.000000000,0.000000000,0.146658992
4.387499298,0.000000000,0.000000000,0.683856848,0.000000000,0.000000000,9.800000000,0.988977162,0.000000000,0.000000000,0.148068139
4.391665964,0.000000000,0.000000000,0.683856848,0.000000000,0.000000000,9.800000000,0.988765205,0.000000000,0.000000000,0.149476986
4.395832630,0.000000000,0.000000000,0.674753660,0.000000000,0.000000000,9.800000000,0.988554103,0.000000000,0.000000000,0.150866781
4.404165962,0.000000000,0.000000000,0.674753660,0.000000000,-0.000000000,9.800000000,0.988126039,0.000000000,0.000000000,0.153645474
4.408332628,0.000000000,0.000000000,0.665390342,-0.000000000,0.000000000,9.800000000,0.987912101,0.000000000,0.000000000,0.155015096
4.412499294,0.000000000,0.000000000,0.665390342,0.000000000,0.000000000,9.800000000,0.987696266,0.000000000,0.000000000,0.156384420
4.416665960,0.000000000,0.000000000,0.665390342,-0.000000000,0.000000000,9.800000000,0.987478532,0.000000000,0.000000000,0.157753443
4.420832626,0.000000000,0.000000000,0.655770503,0.000000000,0.000000000,9.800000000,0.987262090,0.000000000,0.000000000,0.159102377
4.429165958,0.000000000,0.000000000,0.655770503,0.000000000,0.000000000,9.800000000,0.986823677,0.000000000,0.000000000,0.161799351
4.433332624,0.000000000,0.000000000,0.645897853,0.000000000,-0.000000000,9.800000000,0.986605063,0.000000000,0.000000000,0.163127094
4.437499290,0.000000000,0.000000000,0.645897853,0.000000000,-0.000000000,9.800000000,0.986384663,0.000000000,0.000000000,0.164454542
4.441665956,0.000000000,0.000000000,0.645897853,0.000000000,-0.000000000,9.800000000,0.986162477,0.000000000,0.000000000,0.165781692
4.445832622,0.000000000,0.000000000,0.635776196,-0.000000000,-0.000000000,9.800000000,0.985942028,0.000000000,0.000000000,0.167087752
4.454165954,0.000000000,0.000000000,0.635776196,0.000000000,0.000000000,9.800000000,0.985495943,0.000000000,0.000000000,0.169698989
4.458332620,0.000000000,0.000000000,0.625409436,-0.000000000,-0.000000000,9.800000000,0.985273999,0.000000000,0.000000000,0.170982883
4.462499286,0.000000000,0.000000000,0.625409436,0.000000000,-0.000000000,9.800000000,0.985050383,0.000000000,0.000000000,0.172266486
4.466665952,0.000000000,0.000000000,0.625409436,-0.000000000,-0.000000000,9.800000000,0.984825095,0.000000000,0.000000000,0.173549797
4.470832618,0.000000000,0.000000000,0.614801569,-0.000000000,0.000000000,9.800000000,0.984601998,0.000000000,0.000000000,0.174811055
4.479165950,0.000000000,0.000000000,0.614801569,-0.000000000,0.000000000,9.800000000,0.984150960,0.000000000,0.000000000,0.177332706
4.483332616,0.000000000,0.000000000,0.603956684,-0.000000000,0.000000000,9.800000000,0.983927053,0.000000000,0.000000000,0.178570867
4.487499282,0.000000000,0.000000000,0.603956684,-0.000000000,0.000000000,9.800000000,0.983701589,0.000000000,0.000000000,0.179808744
4.491665948,0.000000000,0.000000000,0.603956684,0.000000000,0.000000000,9.800000000,0.983474567,0.000000000,0.000000000,0.181046337
